
time,gFx,gFy,gFz,ax,ay,az,wx,wy,wz,Bx,By,Bz,Azimuth,Pitch,Roll,
0.083393,-0.0638,0.2059,1.0014,0.0000,0.0000,0.0000,0.0000,0.0000,0.0000,0.0000,0.0000,0.0000,0.0000,0.0000,0.0000,
0.087555,-0.0846,0.2404,0.9269,0.0000,0.0000,0.0000,0.0000,0.0000,0.0000,0.0000,0.0000,0.0000,0.0000,0.0000,0.0000,
0.089481,-0.1317,0.2563,0.9332,0.0000,0.0000,0.0000,0.0000,0.0000,0.0000,0.0000,0.0000,0.0000,0.0000,0.0000,0.0000,
0.091088,-0.1689,0.2716,0.9347,0.0000,0.0000,0.0000,0.0000,0.0000,0.0000,0.0000,0.0000,0.0000,0.0000,0.0000,0.0000,
0.092640,-0.1689,0.2716,0.9347,0.0000,0.0000,0.0000,0.0000,0.0000,0.0000,-10.2938,-40.2938,-19.4062,0.0000,0.0000,0.0000,
0.099469,-0.1689,0.2716,0.9347,0.0000,0.0000,0.0000,0.0027,0.0176,-0.0352,-10.2938,-40.2938,-19.4062,0.0000,0.0000,0.0000,
0.101372,-0.1689,0.2716,0.9347,0.0000,0.0000,0.0000,0.0027,0.0176,-0.0352,-10.2938,-40.2938,-19.4062,156.3484,-20.2288,-6.6410,
0.102933,-0.1689,0.2716,0.9347,-0.4802,-0.6606,-0.1717,0.0027,0.0176,-0.0352,-10.2938,-40.2938,-19.4062,156.3484,-20.2288,-6.6410,
0.157860,-0.1689,0.2716,0.9347,-0.4802,-0.6606,-0.1717,0.0027,0.0176,-0.0352,-10.1438,-39.9563,-19.4250,156.3484,-20.2288,-6.6410,
0.160692,-0.1312,0.2848,0.8582,-0.4802,-0.6606,-0.1717,0.0027,0.0176,-0.0352,-10.1438,-39.9563,-19.4250,156.3484,-20.2288,-6.6410,
0.162097,-0.1185,0.2877,0.8785,-0.4802,-0.6606,-0.1717,0.0027,0.0176,-0.0352,-10.1438,-39.9563,-19.4250,156.3484,-20.2288,-6.6410,
0.163452,-0.0775,0.2545,0.9821,-0.4802,-0.6606,-0.1717,0.0027,0.0176,-0.0352,-10.1438,-39.9563,-19.4250,156.3484,-20.2288,-6.6410,
0.164718,-0.1144,0.2653,0.9711,-0.4802,-0.6606,-0.1717,0.0027,0.0176,-0.0352,-10.1438,-39.9563,-19.4250,156.3484,-20.2288,-6.6410,
0.165788,-0.1144,0.2653,0.9711,-0.4802,-0.6606,-0.1717,-0.0009,0.0212,-0.0563,-10.1438,-39.9563,-19.4250,156.3484,-20.2288,-6.6410,
0.166800,-0.1144,0.2653,0.9711,0.0684,-0.8157,0.3584,-0.0009,0.0212,-0.0563,-10.1438,-39.9563,-19.4250,156.3484,-20.2288,-6.6410,
0.167834,-0.1144,0.2653,0.9711,0.0684,-0.8157,0.3584,-0.0009,0.0212,-0.0563,-10.1438,-39.9563,-19.4250,156.5542,-19.8539,-6.7129,
0.227696,-0.1144,0.2653,0.9711,0.0684,-0.8157,0.3584,-0.0009,0.0212,-0.0563,-9.8438,-39.9750,-19.4438,156.5542,-19.8539,-6.7129,
0.233307,-0.1144,0.2653,0.9711,0.0684,-0.8157,0.3584,-0.0160,0.0101,-0.0676,-9.8438,-39.9750,-19.4438,156.5542,-19.8539,-6.7129,
0.234822,-0.1144,0.2653,0.9711,0.0684,-0.8157,0.3584,-0.0160,0.0101,-0.0676,-9.8438,-39.9750,-19.4438,156.5542,-19.8539,-6.7129,
0.236154,-0.1144,0.2653,0.9711,0.4874,-0.6841,0.5647,-0.0160,0.0101,-0.0676,-9.8438,-39.9750,-19.4438,156.5542,-19.8539,-6.7129,
0.239925,-0.1483,0.2721,1.0146,0.4874,-0.6841,0.5647,-0.0160,0.0101,-0.0676,-9.8438,-39.9750,-19.4438,156.5542,-19.8539,-6.7129,
0.241074,-0.1278,0.2606,1.0221,0.4874,-0.6841,0.5647,-0.0160,0.0101,-0.0676,-9.8438,-39.9750,-19.4438,156.5542,-19.8539,-6.7129,
0.242146,-0.0805,0.2604,1.0002,0.4874,-0.6841,0.5647,-0.0160,0.0101,-0.0676,-9.8438,-39.9750,-19.4438,156.5542,-19.8539,-6.7129,
0.243211,-0.0316,0.2785,0.9870,0.4874,-0.6841,0.5647,-0.0160,0.0101,-0.0676,-9.8438,-39.9750,-19.4438,156.5542,-19.8539,-6.7129,
0.298187,-0.0316,0.2785,0.9870,0.4874,-0.6841,0.5647,-0.0160,0.0101,-0.0676,-9.7688,-40.0688,-19.4250,156.5542,-19.8539,-6.7129,
0.301034,-0.0316,0.2785,0.9870,0.4874,-0.6841,0.5647,-0.0160,0.0101,-0.0676,-9.7688,-40.0688,-19.4250,157.0340,-19.1551,-6.7695,
0.302606,-0.0316,0.2785,0.9870,0.4874,-0.6841,0.5647,-0.0269,-0.0079,-0.0757,-9.7688,-40.0688,-19.4250,157.0340,-19.1551,-6.7695,
0.304258,-0.0316,0.2785,0.9870,-0.3913,0.4458,0.7987,-0.0269,-0.0079,-0.0757,-9.7688,-40.0688,-19.4250,157.0340,-19.1551,-6.7695,
0.318721,-0.1630,0.2970,0.9300,-0.3913,0.4458,0.7987,-0.0269,-0.0079,-0.0757,-9.7688,-40.0688,-19.4250,157.0340,-19.1551,-6.7695,
0.320765,-0.1855,0.3403,0.9684,-0.3913,0.4458,0.7987,-0.0269,-0.0079,-0.0757,-9.7688,-40.0688,-19.4250,157.0340,-19.1551,-6.7695,
0.321759,-0.0953,0.3659,1.0334,-0.3913,0.4458,0.7987,-0.0269,-0.0079,-0.0757,-9.7688,-40.0688,-19.4250,157.0340,-19.1551,-6.7695,
0.322749,0.0559,0.2672,0.9743,-0.3913,0.4458,0.7987,-0.0269,-0.0079,-0.0757,-9.7688,-40.0688,-19.4250,157.0340,-19.1551,-6.7695,
0.367715,0.0559,0.2672,0.9743,-0.3913,0.4458,0.7987,-0.0308,-0.0311,-0.0881,-9.7688,-40.0688,-19.4250,157.0340,-19.1551,-6.7695,
0.369919,0.0559,0.2672,0.9743,1.3784,-1.0306,0.3866,-0.0308,-0.0311,-0.0881,-9.7688,-40.0688,-19.4250,157.0340,-19.1551,-6.7695,
0.371112,0.0559,0.2672,0.9743,1.3784,-1.0306,0.3866,-0.0308,-0.0311,-0.0881,-9.7688,-40.0688,-19.4250,157.0340,-19.1551,-6.7695,
0.372335,0.0559,0.2672,0.9743,1.3784,-1.0306,0.3866,-0.0308,-0.0311,-0.0881,-9.8438,-40.1813,-19.2750,157.0340,-19.1551,-6.7695,
0.397056,0.0305,0.2367,0.9963,1.3784,-1.0306,0.3866,-0.0308,-0.0311,-0.0881,-9.8438,-40.1813,-19.2750,157.0340,-19.1551,-6.7695,
0.398551,0.0334,0.2249,0.9928,1.3784,-1.0306,0.3866,-0.0308,-0.0311,-0.0881,-9.8438,-40.1813,-19.2750,157.0340,-19.1551,-6.7695,
0.399766,0.0263,0.2122,1.0028,1.3784,-1.0306,0.3866,-0.0308,-0.0311,-0.0881,-9.8438,-40.1813,-19.2750,157.0340,-19.1551,-6.7695,
0.400969,0.0131,0.1856,0.9562,1.3784,-1.0306,0.3866,-0.0308,-0.0311,-0.0881,-9.8438,-40.1813,-19.2750,157.0340,-19.1551,-6.7695,
0.431710,0.0131,0.1856,0.9562,1.3752,-0.6228,-1.1232,-0.0308,-0.0311,-0.0881,-9.8438,-40.1813,-19.2750,157.0340,-19.1551,-6.7695,
0.433320,0.0131,0.1856,0.9562,1.3752,-0.6228,-1.1232,-0.0308,-0.0311,-0.0881,-9.8438,-40.1813,-19.2750,157.5643,-18.5329,-6.7105,
0.434437,0.0131,0.1856,0.9562,1.3752,-0.6228,-1.1232,-0.0326,-0.0653,-0.1049,-9.8438,-40.1813,-19.2750,157.5643,-18.5329,-6.7105,
0.436875,0.0131,0.1856,0.9562,1.3752,-0.6228,-1.1232,-0.0326,-0.0653,-0.1049,-9.7688,-40.2375,-19.0500,157.5643,-18.5329,-6.7105,
0.475369,0.0356,0.1600,0.8186,1.3752,-0.6228,-1.1232,-0.0326,-0.0653,-0.1049,-9.7688,-40.2375,-19.0500,157.5643,-18.5329,-6.7105,
0.478452,0.0835,0.2516,0.8557,1.3752,-0.6228,-1.1232,-0.0326,-0.0653,-0.1049,-9.7688,-40.2375,-19.0500,157.5643,-18.5329,-6.7105,
0.480493,0.1729,0.1468,0.8678,1.3752,-0.6228,-1.1232,-0.0326,-0.0653,-0.1049,-9.7688,-40.2375,-19.0500,157.5643,-18.5329,-6.7105,
0.481602,-0.0612,0.0740,0.8897,1.3752,-0.6228,-1.1232,-0.0326,-0.0653,-0.1049,-9.7688,-40.2375,-19.0500,157.5643,-18.5329,-6.7105,
0.498973,-0.0612,0.0740,0.8897,1.3752,-0.6228,-1.1232,-0.0363,-0.1121,-0.1195,-9.7688,-40.2375,-19.0500,157.5643,-18.5329,-6.7105,
0.501037,-0.0612,0.0740,0.8897,0.1494,-0.7495,1.0152,-0.0363,-0.1121,-0.1195,-9.7688,-40.2375,-19.0500,157.5643,-18.5329,-6.7105,
0.502458,-0.0612,0.0740,0.8897,0.1494,-0.7495,1.0152,-0.0363,-0.1121,-0.1195,-9.7688,-40.2375,-19.0500,157.5643,-18.5329,-6.7105,
0.507579,-0.0612,0.0740,0.8897,0.1494,-0.7495,1.0152,-0.0363,-0.1121,-0.1195,-9.5625,-40.4062,-18.9750,157.5643,-18.5329,-6.7105,
0.553768,-0.0993,0.2030,1.0448,0.1494,-0.7495,1.0152,-0.0363,-0.1121,-0.1195,-9.5625,-40.4062,-18.9750,157.5643,-18.5329,-6.7105,
0.555466,-0.0015,0.2477,0.9046,0.1494,-0.7495,1.0152,-0.0363,-0.1121,-0.1195,-9.5625,-40.4062,-18.9750,157.5643,-18.5329,-6.7105,
0.556861,0.0434,0.1851,0.7351,0.1494,-0.7495,1.0152,-0.0363,-0.1121,-0.1195,-9.5625,-40.4062,-18.9750,157.5643,-18.5329,-6.7105,
0.558060,0.0950,0.1964,0.8208,0.1494,-0.7495,1.0152,-0.0363,-0.1121,-0.1195,-9.5625,-40.4062,-18.9750,157.5643,-18.5329,-6.7105,
0.564632,0.0950,0.1964,0.8208,0.1494,-0.7495,1.0152,-0.0363,-0.1121,-0.1195,-9.5625,-40.4062,-18.9750,158.3132,-17.9451,-6.5000,
0.566312,0.0950,0.1964,0.8208,2.4742,-1.5587,0.2254,-0.0363,-0.1121,-0.1195,-9.5625,-40.4062,-18.9750,158.3132,-17.9451,-6.5000,
0.567529,0.0950,0.1964,0.8208,2.4742,-1.5587,0.2254,-0.0426,-0.1610,-0.1296,-9.5625,-40.4062,-18.9750,158.3132,-17.9451,-6.5000,
0.576622,0.0950,0.1964,0.8208,2.4742,-1.5587,0.2254,-0.0426,-0.1610,-0.1296,-9.2063,-40.5000,-18.9000,158.3132,-17.9451,-6.5000,
0.632525,0.0950,0.1964,0.8208,2.4742,-1.5587,0.2254,-0.0514,-0.2061,-0.1467,-9.2063,-40.5000,-18.9000,158.3132,-17.9451,-6.5000,
0.635717,0.1612,0.1248,1.0212,2.4742,-1.5587,0.2254,-0.0514,-0.2061,-0.1467,-9.2063,-40.5000,-18.9000,158.3132,-17.9451,-6.5000,
0.637360,0.2668,0.0977,1.1888,2.4742,-1.5587,0.2254,-0.0514,-0.2061,-0.1467,-9.2063,-40.5000,-18.9000,158.3132,-17.9451,-6.5000,
0.638393,0.2970,0.1490,1.3280,2.4742,-1.5587,0.2254,-0.0514,-0.2061,-0.1467,-9.2063,-40.5000,-18.9000,158.3132,-17.9451,-6.5000,
0.639364,0.1847,0.2161,1.3778,2.4742,-1.5587,0.2254,-0.0514,-0.2061,-0.1467,-9.2063,-40.5000,-18.9000,158.3132,-17.9451,-6.5000,
0.640365,0.1847,0.2161,1.3778,2.4327,-1.4999,0.2017,-0.0514,-0.2061,-0.1467,-9.2063,-40.5000,-18.9000,158.3132,-17.9451,-6.5000,
0.641362,0.1847,0.2161,1.3778,2.4327,-1.4999,0.2017,-0.0514,-0.2061,-0.1467,-9.2063,-40.5000,-18.9000,158.8732,-17.5732,-6.2557,
0.647617,0.1847,0.2161,1.3778,2.4327,-1.4999,0.2017,-0.0514,-0.2061,-0.1467,-8.7000,-40.6313,-18.6938,158.8732,-17.5732,-6.2557,
0.700437,0.1847,0.2161,1.3778,2.4327,-1.4999,0.2017,-0.0633,-0.2532,-0.1831,-8.7000,-40.6313,-18.6938,158.8732,-17.5732,-6.2557,
0.703578,0.1847,0.2161,1.3778,2.4327,-1.4999,0.2017,-0.0633,-0.2532,-0.1831,-8.7000,-40.6313,-18.6938,159.4749,-17.2740,-6.0047,
0.705292,0.1847,0.2161,1.3778,2.4905,-0.5237,4.0080,-0.0633,-0.2532,-0.1831,-8.7000,-40.6313,-18.6938,159.4749,-17.2740,-6.0047,
0.712208,0.1834,0.2936,1.1567,2.4905,-0.5237,4.0080,-0.0633,-0.2532,-0.1831,-8.7000,-40.6313,-18.6938,159.4749,-17.2740,-6.0047,
0.714212,0.2159,0.3679,0.7487,2.4905,-0.5237,4.0080,-0.0633,-0.2532,-0.1831,-8.7000,-40.6313,-18.6938,159.4749,-17.2740,-6.0047,
0.715568,0.0146,0.4610,0.8250,2.4905,-0.5237,4.0080,-0.0633,-0.2532,-0.1831,-8.7000,-40.6313,-18.6938,159.4749,-17.2740,-6.0047,
0.716854,-0.0425,0.4223,0.8545,2.4905,-0.5237,4.0080,-0.0633,-0.2532,-0.1831,-8.7000,-40.6313,-18.6938,159.4749,-17.2740,-6.0047,
0.717850,-0.0425,0.4223,0.8545,2.4905,-0.5237,4.0080,-0.0633,-0.2532,-0.1831,-7.6875,-41.0625,-17.8688,159.4749,-17.2740,-6.0047,
0.765748,-0.0425,0.4223,0.8545,2.4905,-0.5237,4.0080,-0.0632,-0.2953,-0.2290,-7.6875,-41.0625,-17.8688,159.4749,-17.2740,-6.0047,
0.767967,-0.0425,0.4223,0.8545,0.5410,1.3596,-0.5119,-0.0632,-0.2953,-0.2290,-7.6875,-41.0625,-17.8688,159.4749,-17.2740,-6.0047,
0.769522,-0.0425,0.4223,0.8545,0.5410,1.3596,-0.5119,-0.0632,-0.2953,-0.2290,-7.6875,-41.0625,-17.8688,160.1834,-17.0799,-5.7478,
0.787332,-0.0425,0.4223,0.8545,0.5410,1.3596,-0.5119,-0.0632,-0.2953,-0.2290,-6.2813,-41.6063,-17.0813,160.1834,-17.0799,-5.7478,
0.789369,-0.0682,0.4439,0.7666,0.5410,1.3596,-0.5119,-0.0632,-0.2953,-0.2290,-6.2813,-41.6063,-17.0813,160.1834,-17.0799,-5.7478,
0.790506,-0.0543,0.4454,0.7593,0.5410,1.3596,-0.5119,-0.0632,-0.2953,-0.2290,-6.2813,-41.6063,-17.0813,160.1834,-17.0799,-5.7478,
0.791612,0.0686,0.3689,0.6755,0.5410,1.3596,-0.5119,-0.0632,-0.2953,-0.2290,-6.2813,-41.6063,-17.0813,160.1834,-17.0799,-5.7478,
0.792751,0.0121,0.2677,1.0380,0.5410,1.3596,-0.5119,-0.0632,-0.2953,-0.2290,-6.2813,-41.6063,-17.0813,160.1834,-17.0799,-5.7478,
0.832768,0.0121,0.2677,1.0380,1.8736,0.4679,-2.5717,-0.0632,-0.2953,-0.2290,-6.2813,-41.6063,-17.0813,160.1834,-17.0799,-5.7478,
0.834280,0.0121,0.2677,1.0380,1.8736,0.4679,-2.5717,-0.0632,-0.2953,-0.2290,-6.2813,-41.6063,-17.0813,160.1834,-17.0799,-5.7478,
0.835180,0.0121,0.2677,1.0380,1.8736,0.4679,-2.5717,-0.0255,-0.3041,-0.2650,-6.2813,-41.6063,-17.0813,160.1834,-17.0799,-5.7478,
0.857024,0.0121,0.2677,1.0380,1.8736,0.4679,-2.5717,-0.0255,-0.3041,-0.2650,-4.3313,-41.8688,-16.5563,160.1834,-17.0799,-5.7478,
0.869359,-0.2229,0.3576,1.0597,1.8736,0.4679,-2.5717,-0.0255,-0.3041,-0.2650,-4.3313,-41.8688,-16.5563,160.1834,-17.0799,-5.7478,
0.871533,-0.2202,0.3092,0.7608,1.8736,0.4679,-2.5717,-0.0255,-0.3041,-0.2650,-4.3313,-41.8688,-16.5563,160.1834,-17.0799,-5.7478,
0.872803,-0.0685,0.3012,0.7067,1.8736,0.4679,-2.5717,-0.0255,-0.3041,-0.2650,-4.3313,-41.8688,-16.5563,160.1834,-17.0799,-5.7478,
0.873858,-0.0513,0.2819,0.7358,1.8736,0.4679,-2.5717,-0.0255,-0.3041,-0.2650,-4.3313,-41.8688,-16.5563,160.1834,-17.0799,-5.7478,
0.899090,-0.0513,0.2819,0.7358,1.8736,0.4679,-2.5717,0.0475,-0.2665,-0.2944,-4.3313,-41.8688,-16.5563,160.1834,-17.0799,-5.7478,
0.902177,-0.0513,0.2819,0.7358,0.0522,0.2353,-2.0582,0.0475,-0.2665,-0.2944,-4.3313,-41.8688,-16.5563,160.1834,-17.0799,-5.7478,
0.904716,-0.0513,0.2819,0.7358,0.0522,0.2353,-2.0582,0.0475,-0.2665,-0.2944,-4.3313,-41.8688,-16.5563,161.9902,-16.8274,-5.3521,
0.927788,-0.0513,0.2819,0.7358,0.0522,0.2353,-2.0582,0.0475,-0.2665,-0.2944,-2.1000,-42.0000,-16.1438,161.9902,-16.8274,-5.3521,
0.948370,-0.0870,0.3153,0.7781,0.0522,0.2353,-2.0582,0.0475,-0.2665,-0.2944,-2.1000,-42.0000,-16.1438,161.9902,-16.8274,-5.3521,
0.951330,-0.0513,0.2946,0.9369,0.0522,0.2353,-2.0582,0.0475,-0.2665,-0.2944,-2.1000,-42.0000,-16.1438,161.9902,-16.8274,-5.3521,
0.953877,0.0165,0.2181,0.9288,0.0522,0.2353,-2.0582,0.0475,-0.2665,-0.2944,-2.1000,-42.0000,-16.1438,161.9902,-16.8274,-5.3521,
0.956386,0.0385,0.2953,0.6892,0.0522,0.2353,-2.0582,0.0475,-0.2665,-0.2944,-2.1000,-42.0000,-16.1438,161.9902,-16.8274,-5.3521,
0.968897,0.0385,0.2953,0.6892,0.2486,-0.1294,-0.2628,0.0475,-0.2665,-0.2944,-2.1000,-42.0000,-16.1438,161.9902,-16.8274,-5.3521,
0.974386,0.0385,0.2953,0.6892,0.2486,-0.1294,-0.2628,0.1175,-0.2120,-0.3402,-2.1000,-42.0000,-16.1438,161.9902,-16.8274,-5.3521,
0.977794,0.0385,0.2953,0.6892,0.2486,-0.1294,-0.2628,0.1175,-0.2120,-0.3402,-2.1000,-42.0000,-16.1438,161.9902,-16.8274,-5.3521,
0.997849,0.0385,0.2953,0.6892,0.2486,-0.1294,-0.2628,0.1175,-0.2120,-0.3402,0.3563,-42.1313,-15.9000,161.9902,-16.8274,-5.3521,
1.026681,0.0241,0.3474,0.2939,0.2486,-0.1294,-0.2628,0.1175,-0.2120,-0.3402,0.3563,-42.1313,-15.9000,161.9902,-16.8274,-5.3521,
1.037597,0.1143,0.3662,0.6398,0.2486,-0.1294,-0.2628,0.1175,-0.2120,-0.3402,0.3563,-42.1313,-15.9000,161.9902,-16.8274,-5.3521,
1.042117,0.0654,0.1993,0.7854,0.2486,-0.1294,-0.2628,0.1175,-0.2120,-0.3402,0.3563,-42.1313,-15.9000,161.9902,-16.8274,-5.3521,
1.049056,-0.0783,0.1717,0.9124,0.2486,-0.1294,-0.2628,0.1175,-0.2120,-0.3402,0.3563,-42.1313,-15.9000,161.9902,-16.8274,-5.3521,
1.055167,-0.0783,0.1717,0.9124,0.2486,-0.1294,-0.2628,0.1467,-0.1791,-0.4102,0.3563,-42.1313,-15.9000,161.9902,-16.8274,-5.3521,
1.059190,-0.0783,0.1717,0.9124,0.2486,-0.1294,-0.2628,0.1467,-0.1791,-0.4102,0.3563,-42.1313,-15.9000,164.1400,-16.9635,-5.2388,
1.061041,-0.0783,0.1717,0.9124,1.8669,1.1607,-3.6908,0.1467,-0.1791,-0.4102,0.3563,-42.1313,-15.9000,164.1400,-16.9635,-5.2388,
1.068695,-0.0783,0.1717,0.9124,1.8669,1.1607,-3.6908,0.1467,-0.1791,-0.4102,3.0375,-41.9062,-15.8438,164.1400,-16.9635,-5.2388,
1.101012,-0.0783,0.1717,0.9124,1.8669,1.1607,-3.6908,0.1371,-0.1781,-0.4865,3.0375,-41.9062,-15.8438,164.1400,-16.9635,-5.2388,
1.109969,-0.0783,0.1717,0.9124,-0.8006,-0.3827,0.1059,0.1371,-0.1781,-0.4865,3.0375,-41.9062,-15.8438,164.1400,-16.9635,-5.2388,
1.118143,-0.1517,0.2675,0.9571,-0.8006,-0.3827,0.1059,0.1371,-0.1781,-0.4865,3.0375,-41.9062,-15.8438,164.1400,-16.9635,-5.2388,
1.123090,-0.0308,0.2643,0.8687,-0.8006,-0.3827,0.1059,0.1371,-0.1781,-0.4865,3.0375,-41.9062,-15.8438,164.1400,-16.9635,-5.2388,
1.131728,0.0781,0.2665,0.6652,-0.8006,-0.3827,0.1059,0.1371,-0.1781,-0.4865,3.0375,-41.9062,-15.8438,164.1400,-16.9635,-5.2388,
1.135768,-0.0563,0.3063,0.6332,-0.8006,-0.3827,0.1059,0.1371,-0.1781,-0.4865,3.0375,-41.9062,-15.8438,164.1400,-16.9635,-5.2388,
1.137081,-0.0563,0.3063,0.6332,-0.8006,-0.3827,0.1059,0.1371,-0.1781,-0.4865,3.0375,-41.9062,-15.8438,164.1400,-16.9635,-5.2388,
1.137970,-0.0563,0.3063,0.6332,-0.8006,-0.3827,0.1059,0.1371,-0.1781,-0.4865,5.6438,-41.4375,-16.1813,164.1400,-16.9635,-5.2388,
1.165392,-0.0563,0.3063,0.6332,-0.1698,0.5368,-4.4732,0.1371,-0.1781,-0.4865,5.6438,-41.4375,-16.1813,164.1400,-16.9635,-5.2388,
1.167890,-0.0563,0.3063,0.6332,-0.1698,0.5368,-4.4732,0.1166,-0.1963,-0.5526,5.6438,-41.4375,-16.1813,164.1400,-16.9635,-5.2388,
1.169194,-0.0563,0.3063,0.6332,-0.1698,0.5368,-4.4732,0.1166,-0.1963,-0.5526,5.6438,-41.4375,-16.1813,166.8203,-17.1456,-5.1453,
1.182925,-0.0450,0.2990,0.4886,-0.1698,0.5368,-4.4732,0.1166,-0.1963,-0.5526,5.6438,-41.4375,-16.1813,166.8203,-17.1456,-5.1453,
1.185216,0.1348,0.2289,0.5709,-0.1698,0.5368,-4.4732,0.1166,-0.1963,-0.5526,5.6438,-41.4375,-16.1813,166.8203,-17.1456,-5.1453,
1.186499,0.1323,0.2421,0.5963,-0.1698,0.5368,-4.4732,0.1166,-0.1963,-0.5526,5.6438,-41.4375,-16.1813,166.8203,-17.1456,-5.1453,
1.187587,0.1524,0.2685,0.6095,-0.1698,0.5368,-4.4732,0.1166,-0.1963,-0.5526,5.6438,-41.4375,-16.1813,166.8203,-17.1456,-5.1453,
1.207372,0.1524,0.2685,0.6095,-0.1698,0.5368,-4.4732,0.1166,-0.1963,-0.5526,8.2313,-40.7625,-16.8375,166.8203,-17.1456,-5.1453,
1.232337,0.1524,0.2685,0.6095,-0.1698,0.5368,-4.4732,0.1029,-0.2300,-0.6074,8.2313,-40.7625,-16.8375,166.8203,-17.1456,-5.1453,
1.235221,0.1524,0.2685,0.6095,2.4985,-0.2430,-3.2815,0.1029,-0.2300,-0.6074,8.2313,-40.7625,-16.8375,166.8203,-17.1456,-5.1453,
1.236711,0.1524,0.2685,0.6095,2.4985,-0.2430,-3.2815,0.1029,-0.2300,-0.6074,8.2313,-40.7625,-16.8375,168.3376,-17.2829,-4.9553,
1.261418,0.1727,0.3280,0.5795,2.4985,-0.2430,-3.2815,0.1029,-0.2300,-0.6074,8.2313,-40.7625,-16.8375,168.3376,-17.2829,-4.9553,
1.264398,0.1477,0.4057,0.5154,2.4985,-0.2430,-3.2815,0.1029,-0.2300,-0.6074,8.2313,-40.7625,-16.8375,168.3376,-17.2829,-4.9553,
1.265758,0.1563,0.3131,0.6234,2.4985,-0.2430,-3.2815,0.1029,-0.2300,-0.6074,8.2313,-40.7625,-16.8375,168.3376,-17.2829,-4.9553,
1.267099,0.2337,0.1986,0.6327,2.4985,-0.2430,-3.2815,0.1029,-0.2300,-0.6074,8.2313,-40.7625,-16.8375,168.3376,-17.2829,-4.9553,
1.277504,0.2337,0.1986,0.6327,2.4985,-0.2430,-3.2815,0.1029,-0.2300,-0.6074,10.2750,-39.9000,-18.2250,168.3376,-17.2829,-4.9553,
1.298315,0.2337,0.1986,0.6327,2.4985,-0.2430,-3.2815,0.0990,-0.2877,-0.6555,10.2750,-39.9000,-18.2250,168.3376,-17.2829,-4.9553,
1.301336,0.2337,0.1986,0.6327,3.1036,-0.6133,-3.2986,0.0990,-0.2877,-0.6555,10.2750,-39.9000,-18.2250,168.3376,-17.2829,-4.9553,
1.302809,0.2337,0.1986,0.6327,3.1036,-0.6133,-3.2986,0.0990,-0.2877,-0.6555,10.2750,-39.9000,-18.2250,169.9816,-17.4027,-4.6567,
1.340811,0.2118,0.1214,0.8074,3.1036,-0.6133,-3.2986,0.0990,-0.2877,-0.6555,10.2750,-39.9000,-18.2250,169.9816,-17.4027,-4.6567,
1.343281,0.2481,0.2044,0.7969,3.1036,-0.6133,-3.2986,0.0990,-0.2877,-0.6555,10.2750,-39.9000,-18.2250,169.9816,-17.4027,-4.6567,
1.344751,0.3202,0.3489,0.6168,3.1036,-0.6133,-3.2986,0.0990,-0.2877,-0.6555,10.2750,-39.9000,-18.2250,169.9816,-17.4027,-4.6567,
1.345716,0.2851,0.1856,0.9427,3.1036,-0.6133,-3.2986,0.0990,-0.2877,-0.6555,10.2750,-39.9000,-18.2250,169.9816,-17.4027,-4.6567,
1.346738,0.2851,0.1856,0.9427,3.1036,-0.6133,-3.2986,0.0990,-0.2877,-0.6555,11.6813,-39.0000,-19.3500,169.9816,-17.4027,-4.6567,
1.365752,0.2851,0.1856,0.9427,3.1036,-0.6133,-3.2986,0.0844,-0.3688,-0.6963,11.6813,-39.0000,-19.3500,169.9816,-17.4027,-4.6567,
1.367925,0.2851,0.1856,0.9427,3.9420,0.5369,-3.3431,0.0844,-0.3688,-0.6963,11.6813,-39.0000,-19.3500,169.9816,-17.4027,-4.6567,
1.369155,0.2851,0.1856,0.9427,3.9420,0.5369,-3.3431,0.0844,-0.3688,-0.6963,11.6813,-39.0000,-19.3500,171.8301,-17.2975,-4.2106,
1.417628,0.2851,0.1856,0.9427,3.9420,0.5369,-3.3431,0.0844,-0.3688,-0.6963,12.5438,-38.7188,-19.4250,171.8301,-17.2975,-4.2106,
1.420245,0.2342,-0.0887,1.3322,3.9420,0.5369,-3.3431,0.0844,-0.3688,-0.6963,12.5438,-38.7188,-19.4250,171.8301,-17.2975,-4.2106,
1.421566,0.2210,0.1167,1.1421,3.9420,0.5369,-3.3431,0.0844,-0.3688,-0.6963,12.5438,-38.7188,-19.4250,171.8301,-17.2975,-4.2106,
1.423237,0.1851,0.3310,1.0317,3.9420,0.5369,-3.3431,0.0844,-0.3688,-0.6963,12.5438,-38.7188,-19.4250,171.8301,-17.2975,-4.2106,
1.424388,0.1998,0.1746,1.2980,3.9420,0.5369,-3.3431,0.0844,-0.3688,-0.6963,12.5438,-38.7188,-19.4250,171.8301,-17.2975,-4.2106,
1.432196,0.1998,0.1746,1.2980,3.9420,0.5369,-3.3431,0.0192,-0.4532,-0.7197,12.5438,-38.7188,-19.4250,171.8301,-17.2975,-4.2106,
1.433927,0.1998,0.1746,1.2980,3.9420,0.5369,-3.3431,0.0192,-0.4532,-0.7197,12.5438,-38.7188,-19.4250,173.7991,-17.1003,-3.6300,
1.435199,0.1998,0.1746,1.2980,2.4447,0.3564,0.3370,0.0192,-0.4532,-0.7197,12.5438,-38.7188,-19.4250,173.7991,-17.1003,-3.6300,
1.487388,0.1998,0.1746,1.2980,2.4447,0.3564,0.3370,0.0192,-0.4532,-0.7197,12.9938,-38.7938,-18.7313,173.7991,-17.1003,-3.6300,
1.499450,0.1966,0.1177,1.3053,2.4447,0.3564,0.3370,0.0192,-0.4532,-0.7197,12.9938,-38.7938,-18.7313,173.7991,-17.1003,-3.6300,
1.502457,0.2262,0.3278,1.1147,2.4447,0.3564,0.3370,0.0192,-0.4532,-0.7197,12.9938,-38.7938,-18.7313,173.7991,-17.1003,-3.6300,
1.504715,0.1685,0.4407,1.1162,2.4447,0.3564,0.3370,0.0192,-0.4532,-0.7197,12.9938,-38.7938,-18.7313,173.7991,-17.1003,-3.6300,
1.505693,0.2218,0.4451,1.1401,2.4447,0.3564,0.3370,0.0192,-0.4532,-0.7197,12.9938,-38.7938,-18.7313,173.7991,-17.1003,-3.6300,
1.506673,0.2218,0.4451,1.1401,2.3996,0.8925,1.5663,0.0192,-0.4532,-0.7197,12.9938,-38.7938,-18.7313,173.7991,-17.1003,-3.6300,
1.507646,0.2218,0.4451,1.1401,2.3996,0.8925,1.5663,-0.1106,-0.5029,-0.7030,12.9938,-38.7938,-18.7313,173.7991,-17.1003,-3.6300,
1.508704,0.2218,0.4451,1.1401,2.3996,0.8925,1.5663,-0.1106,-0.5029,-0.7030,12.9938,-38.7938,-18.7313,175.8270,-16.9134,-2.9458,
1.558670,0.2218,0.4451,1.1401,2.3996,0.8925,1.5663,-0.1106,-0.5029,-0.7030,12.8438,-39.0000,-17.6813,175.8270,-16.9134,-2.9458,
1.566801,0.2218,0.4451,1.1401,2.3996,0.8925,1.5663,-0.2317,-0.4987,-0.6331,12.8438,-39.0000,-17.6813,175.8270,-16.9134,-2.9458,
1.569234,0.2218,0.4451,1.1401,2.8678,1.5668,3.4188,-0.2317,-0.4987,-0.6331,12.8438,-39.0000,-17.6813,175.8270,-16.9134,-2.9458,
1.571176,0.2218,0.4451,1.1401,2.8678,1.5668,3.4188,-0.2317,-0.4987,-0.6331,12.8438,-39.0000,-17.6813,177.8715,-16.8208,-2.1834,
1.576100,0.3161,0.4194,1.1915,2.8678,1.5668,3.4188,-0.2317,-0.4987,-0.6331,12.8438,-39.0000,-17.6813,177.8715,-16.8208,-2.1834,
1.577464,0.2525,0.4971,1.2877,2.8678,1.5668,3.4188,-0.2317,-0.4987,-0.6331,12.8438,-39.0000,-17.6813,177.8715,-16.8208,-2.1834,
1.578485,0.3009,0.6686,1.1331,2.8678,1.5668,3.4188,-0.2317,-0.4987,-0.6331,12.8438,-39.0000,-17.6813,177.8715,-16.8208,-2.1834,
1.579491,0.4062,0.7277,1.0129,2.8678,1.5668,3.4188,-0.2317,-0.4987,-0.6331,12.8438,-39.0000,-17.6813,177.8715,-16.8208,-2.1834,
1.628369,0.4062,0.7277,1.0129,2.8678,1.5668,3.4188,-0.2317,-0.4987,-0.6331,12.0563,-39.5813,-16.0500,177.8715,-16.8208,-2.1834,
1.633922,0.4062,0.7277,1.0129,2.8678,1.5668,3.4188,-0.2317,-0.4987,-0.6331,12.0563,-39.5813,-16.0500,179.9059,-16.8541,-1.3364,
1.635549,0.4062,0.7277,1.0129,4.5951,3.4084,2.0946,-0.2317,-0.4987,-0.6331,12.0563,-39.5813,-16.0500,179.9059,-16.8541,-1.3364,
1.637142,0.4062,0.7277,1.0129,4.5951,3.4084,2.0946,-0.2295,-0.4623,-0.5327,12.0563,-39.5813,-16.0500,179.9059,-16.8541,-1.3364,
1.654608,0.4543,0.6542,1.1216,4.5951,3.4084,2.0946,-0.2295,-0.4623,-0.5327,12.0563,-39.5813,-16.0500,179.9059,-16.8541,-1.3364,
1.656635,0.4392,0.7241,1.1753,4.5951,3.4084,2.0946,-0.2295,-0.4623,-0.5327,12.0563,-39.5813,-16.0500,179.9059,-16.8541,-1.3364,
1.657991,0.4411,0.9127,1.0307,4.5951,3.4084,2.0946,-0.2295,-0.4623,-0.5327,12.0563,-39.5813,-16.0500,179.9059,-16.8541,-1.3364,
1.659303,0.4634,0.9762,0.9229,4.5951,3.4084,2.0946,-0.2295,-0.4623,-0.5327,12.0563,-39.5813,-16.0500,179.9059,-16.8541,-1.3364,
1.699303,0.4634,0.9762,0.9229,4.5951,3.4084,2.0946,-0.0755,-0.4341,-0.4366,12.0563,-39.5813,-16.0500,179.9059,-16.8541,-1.3364,
1.702307,0.4634,0.9762,0.9229,4.5951,3.4084,2.0946,-0.0755,-0.4341,-0.4366,10.7812,-40.4250,-13.7438,179.9059,-16.8541,-1.3364,
1.704250,0.4634,0.9762,0.9229,4.6818,6.0017,0.1267,-0.0755,-0.4341,-0.4366,10.7812,-40.4250,-13.7438,179.9059,-16.8541,-1.3364,
1.705260,0.4634,0.9762,0.9229,4.6818,6.0017,0.1267,-0.0755,-0.4341,-0.4366,10.7812,-40.4250,-13.7438,181.8904,-17.0961,-0.4154,
1.733096,0.4673,0.8822,0.9684,4.6818,6.0017,0.1267,-0.0755,-0.4341,-0.4366,10.7812,-40.4250,-13.7438,181.8904,-17.0961,-0.4154,
1.736002,0.4927,0.8225,0.9469,4.6818,6.0017,0.1267,-0.0755,-0.4341,-0.4366,10.7812,-40.4250,-13.7438,181.8904,-17.0961,-0.4154,
1.737390,0.4284,0.8550,1.0436,4.6818,6.0017,0.1267,-0.0755,-0.4341,-0.4366,10.7812,-40.4250,-13.7438,181.8904,-17.0961,-0.4154,
1.738481,0.4165,0.8641,1.0397,4.6818,6.0017,0.1267,-0.0755,-0.4341,-0.4366,10.7812,-40.4250,-13.7438,181.8904,-17.0961,-0.4154,
1.766310,0.4165,0.8641,1.0397,4.6818,6.0017,0.1267,0.1481,-0.4352,-0.3568,10.7812,-40.4250,-13.7438,181.8904,-17.0961,-0.4154,
1.768852,0.4165,0.8641,1.0397,4.0660,5.4172,0.7939,0.1481,-0.4352,-0.3568,10.7812,-40.4250,-13.7438,181.8904,-17.0961,-0.4154,
1.770073,0.4165,0.8641,1.0397,4.0660,5.4172,0.7939,0.1481,-0.4352,-0.3568,10.7812,-40.4250,-13.7438,183.8064,-17.6846,0.5527,
1.771163,0.4165,0.8641,1.0397,4.0660,5.4172,0.7939,0.1481,-0.4352,-0.3568,9.4125,-41.5875,-11.4188,183.8064,-17.6846,0.5527,
1.812403,0.4536,0.8491,0.9532,4.0660,5.4172,0.7939,0.1481,-0.4352,-0.3568,9.4125,-41.5875,-11.4188,183.8064,-17.6846,0.5527,
1.815363,0.4798,0.8025,0.9171,4.0660,5.4172,0.7939,0.1481,-0.4352,-0.3568,9.4125,-41.5875,-11.4188,183.8064,-17.6846,0.5527,
1.816978,0.4634,0.7458,0.9483,4.0660,5.4172,0.7939,0.1481,-0.4352,-0.3568,9.4125,-41.5875,-11.4188,183.8064,-17.6846,0.5527,
1.817954,0.4837,0.6586,0.8770,4.0660,5.4172,0.7939,0.1481,-0.4352,-0.3568,9.4125,-41.5875,-11.4188,183.8064,-17.6846,0.5527,
1.832556,0.4837,0.6586,0.8770,4.0660,5.4172,0.7939,0.1481,-0.4352,-0.3568,9.4125,-41.5875,-11.4188,185.7345,-18.4854,1.6216,
1.835315,0.4837,0.6586,0.8770,4.1847,3.4205,-0.0078,0.1481,-0.4352,-0.3568,9.4125,-41.5875,-11.4188,185.7345,-18.4854,1.6216,
1.837061,0.4837,0.6586,0.8770,4.1847,3.4205,-0.0078,0.3337,-0.4544,-0.2837,9.4125,-41.5875,-11.4188,185.7345,-18.4854,1.6216,
1.838153,0.4837,0.6586,0.8770,4.1847,3.4205,-0.0078,0.3337,-0.4544,-0.2837,8.2500,-42.5813,-9.4500,185.7345,-18.4854,1.6216,
1.891002,0.5013,0.6550,0.7456,4.1847,3.4205,-0.0078,0.3337,-0.4544,-0.2837,8.2500,-42.5813,-9.4500,185.7345,-18.4854,1.6216,
1.893314,0.4758,0.6447,0.7749,4.1847,3.4205,-0.0078,0.3337,-0.4544,-0.2837,8.2500,-42.5813,-9.4500,185.7345,-18.4854,1.6216,
1.894655,0.4448,0.6366,0.7945,4.1847,3.4205,-0.0078,0.3337,-0.4544,-0.2837,8.2500,-42.5813,-9.4500,185.7345,-18.4854,1.6216,
1.896080,0.4350,0.6095,0.7705,4.1847,3.4205,-0.0078,0.3337,-0.4544,-0.2837,8.2500,-42.5813,-9.4500,185.7345,-18.4854,1.6216,
1.898725,0.4350,0.6095,0.7705,4.1847,3.4205,-0.0078,0.3337,-0.4544,-0.2837,8.2500,-42.5813,-9.4500,187.6850,-19.3076,2.7826,
1.900443,0.4350,0.6095,0.7705,3.8760,2.9691,-1.4442,0.3337,-0.4544,-0.2837,8.2500,-42.5813,-9.4500,187.6850,-19.3076,2.7826,
1.901629,0.4350,0.6095,0.7705,3.8760,2.9691,-1.4442,0.4310,-0.4708,-0.2154,8.2500,-42.5813,-9.4500,187.6850,-19.3076,2.7826,
1.906494,0.4350,0.6095,0.7705,3.8760,2.9691,-1.4442,0.4310,-0.4708,-0.2154,7.3500,-43.3500,-8.0438,187.6850,-19.3076,2.7826,
1.965789,0.4350,0.6095,0.7705,3.8760,2.9691,-1.4442,0.4474,-0.4734,-0.1650,7.3500,-43.3500,-8.0438,187.6850,-19.3076,2.7826,
1.969037,0.4350,0.6095,0.7705,1.2993,6.4791,-1.1110,0.4474,-0.4734,-0.1650,7.3500,-43.3500,-8.0438,187.6850,-19.3076,2.7826,
1.970606,0.4350,0.6095,0.7705,1.2993,6.4791,-1.1110,0.4474,-0.4734,-0.1650,7.3500,-43.3500,-8.0438,189.6105,-20.1651,3.9350,
1.972085,0.4468,0.5873,0.7529,1.2993,6.4791,-1.1110,0.4474,-0.4734,-0.1650,7.3500,-43.3500,-8.0438,189.6105,-20.1651,3.9350,
1.973128,0.4128,0.7082,0.7556,1.2993,6.4791,-1.1110,0.4474,-0.4734,-0.1650,7.3500,-43.3500,-8.0438,189.6105,-20.1651,3.9350,
1.974086,0.2171,0.9459,0.7798,1.2993,6.4791,-1.1110,0.4474,-0.4734,-0.1650,7.3500,-43.3500,-8.0438,189.6105,-20.1651,3.9350,
1.975036,0.3065,0.6190,0.8428,1.2993,6.4791,-1.1110,0.4474,-0.4734,-0.1650,7.3500,-43.3500,-8.0438,189.6105,-20.1651,3.9350,
1.977300,0.3065,0.6190,0.8428,1.2993,6.4791,-1.1110,0.4474,-0.4734,-0.1650,6.4500,-43.7625,-7.3125,189.6105,-20.1651,3.9350,
2.032610,0.3065,0.6190,0.8428,1.2993,6.4791,-1.1110,0.4107,-0.4546,-0.1393,6.4500,-43.7625,-7.3125,189.6105,-20.1651,3.9350,
2.035957,0.3065,0.6190,0.8428,1.2993,6.4791,-1.1110,0.4107,-0.4546,-0.1393,6.4500,-43.7625,-7.3125,191.4655,-20.9459,5.0363,
2.037351,0.3065,0.6190,0.8428,1.7961,1.2072,-0.2172,0.4107,-0.4546,-0.1393,6.4500,-43.7625,-7.3125,191.4655,-20.9459,5.0363,
2.047423,0.3065,0.6190,0.8428,1.7961,1.2072,-0.2172,0.4107,-0.4546,-0.1393,5.7000,-43.8563,-7.6688,191.4655,-20.9459,5.0363,
2.049947,0.3398,0.3442,1.0302,1.7961,1.2072,-0.2172,0.4107,-0.4546,-0.1393,5.7000,-43.8563,-7.6688,191.4655,-20.9459,5.0363,
2.051741,0.2623,0.4338,0.9672,1.7961,1.2072,-0.2172,0.4107,-0.4546,-0.1393,5.7000,-43.8563,-7.6688,191.4655,-20.9459,5.0363,
2.053237,0.2432,0.4991,0.8897,1.7961,1.2072,-0.2172,0.4107,-0.4546,-0.1393,5.7000,-43.8563,-7.6688,191.4655,-20.9459,5.0363,
2.054565,0.2100,0.4109,0.9471,1.7961,1.2072,-0.2172,0.4107,-0.4546,-0.1393,5.7000,-43.8563,-7.6688,191.4655,-20.9459,5.0363,
2.099257,0.2100,0.4109,0.9471,1.7961,1.2072,-0.2172,0.4107,-0.4546,-0.1393,5.7000,-43.8563,-7.6688,193.2804,-21.6657,6.1024,
2.102618,0.2100,0.4109,0.9471,2.6248,0.8313,-1.7076,0.4107,-0.4546,-0.1393,5.7000,-43.8563,-7.6688,193.2804,-21.6657,6.1024,
2.104470,0.2100,0.4109,0.9471,2.6248,0.8313,-1.7076,0.3505,-0.4048,-0.1271,5.7000,-43.8563,-7.6688,193.2804,-21.6657,6.1024,
2.118433,0.2100,0.4109,0.9471,2.6248,0.8313,-1.7076,0.3505,-0.4048,-0.1271,5.1562,-43.8750,-8.5500,193.2804,-21.6657,6.1024,
2.125750,0.3151,0.4094,0.8159,2.6248,0.8313,-1.7076,0.3505,-0.4048,-0.1271,5.1562,-43.8750,-8.5500,193.2804,-21.6657,6.1024,
2.127168,0.3666,0.4920,0.7434,2.6248,0.8313,-1.7076,0.3505,-0.4048,-0.1271,5.1562,-43.8750,-8.5500,193.2804,-21.6657,6.1024,
2.128588,0.3422,0.5927,0.7708,2.6248,0.8313,-1.7076,0.3505,-0.4048,-0.1271,5.1562,-43.8750,-8.5500,193.2804,-21.6657,6.1024,
2.129900,0.3398,0.6603,0.8245,2.6248,0.8313,-1.7076,0.3505,-0.4048,-0.1271,5.1562,-43.8750,-8.5500,193.2804,-21.6657,6.1024,
2.165789,0.3398,0.6603,0.8245,2.6248,0.8313,-1.7076,0.2823,-0.3311,-0.1116,5.1562,-43.8750,-8.5500,193.2804,-21.6657,6.1024,
2.169265,0.3398,0.6603,0.8245,2.6248,0.8313,-1.7076,0.2823,-0.3311,-0.1116,5.1562,-43.8750,-8.5500,195.0418,-22.2266,7.1752,
2.171593,0.3398,0.6603,0.8245,3.2421,2.3453,-0.9340,0.2823,-0.3311,-0.1116,5.1562,-43.8750,-8.5500,195.0418,-22.2266,7.1752,
2.187154,0.3398,0.6603,0.8245,3.2421,2.3453,-0.9340,0.2823,-0.3311,-0.1116,4.6125,-43.7625,-9.8625,195.0418,-22.2266,7.1752,
2.205100,0.4231,0.6053,0.7932,3.2421,2.3453,-0.9340,0.2823,-0.3311,-0.1116,4.6125,-43.7625,-9.8625,195.0418,-22.2266,7.1752,
2.215647,0.5164,0.4075,0.8448,3.2421,2.3453,-0.9340,0.2823,-0.3311,-0.1116,4.6125,-43.7625,-9.8625,195.0418,-22.2266,7.1752,
2.222588,0.4516,0.3183,0.9430,3.2421,2.3453,-0.9340,0.2823,-0.3311,-0.1116,4.6125,-43.7625,-9.8625,195.0418,-22.2266,7.1752,
2.227640,0.3882,0.2660,0.8910,3.2421,2.3453,-0.9340,0.2823,-0.3311,-0.1116,4.6125,-43.7625,-9.8625,195.0418,-22.2266,7.1752,
2.234594,0.3882,0.2660,0.8910,3.2421,2.3453,-0.9340,0.1998,-0.2633,-0.0825,4.6125,-43.7625,-9.8625,195.0418,-22.2266,7.1752,
2.240082,0.3882,0.2660,0.8910,3.2421,2.3453,-0.9340,0.1998,-0.2633,-0.0825,4.6125,-43.7625,-9.8625,196.6650,-22.6999,8.1831,
2.244399,0.3882,0.2660,0.8910,1.5867,-0.3728,-0.2691,0.1998,-0.2633,-0.0825,4.6125,-43.7625,-9.8625,196.6650,-22.6999,8.1831,
2.257936,0.3882,0.2660,0.8910,1.5867,-0.3728,-0.2691,0.1998,-0.2633,-0.0825,4.1625,-43.5375,-11.5500,196.6650,-22.6999,8.1831,
2.284265,0.3561,0.3136,0.8592,1.5867,-0.3728,-0.2691,0.1998,-0.2633,-0.0825,4.1625,-43.5375,-11.5500,196.6650,-22.6999,8.1831,
2.295254,0.4033,0.3867,0.9449,1.5867,-0.3728,-0.2691,0.1998,-0.2633,-0.0825,4.1625,-43.5375,-11.5500,196.6650,-22.6999,8.1831,
2.304948,0.5042,0.3197,0.8260,1.5867,-0.3728,-0.2691,0.1998,-0.2633,-0.0825,4.1625,-43.5375,-11.5500,196.6650,-22.6999,8.1831,
2.306199,0.4114,0.4573,0.8714,1.5867,-0.3728,-0.2691,0.1998,-0.2633,-0.0825,4.1625,-43.5375,-11.5500,196.6650,-22.6999,8.1831,
2.307205,0.4114,0.4573,0.8714,2.3618,0.9978,-0.0686,0.1998,-0.2633,-0.0825,4.1625,-43.5375,-11.5500,196.6650,-22.6999,8.1831,
2.308282,0.4114,0.4573,0.8714,2.3618,0.9978,-0.0686,0.1002,-0.2239,-0.0394,4.1625,-43.5375,-11.5500,196.6650,-22.6999,8.1831,
2.309255,0.4114,0.4573,0.8714,2.3618,0.9978,-0.0686,0.1002,-0.2239,-0.0394,4.1625,-43.5375,-11.5500,198.1392,-23.1522,9.1206,
2.326644,0.4114,0.4573,0.8714,2.3618,0.9978,-0.0686,0.1002,-0.2239,-0.0394,3.4125,-43.1813,-13.0125,198.1392,-23.1522,9.1206,
2.362006,0.3544,0.4954,0.8985,2.3618,0.9978,-0.0686,0.1002,-0.2239,-0.0394,3.4125,-43.1813,-13.0125,198.1392,-23.1522,9.1206,
2.363940,0.5613,0.3620,0.7713,2.3618,0.9978,-0.0686,0.1002,-0.2239,-0.0394,3.4125,-43.1813,-13.0125,198.1392,-23.1522,9.1206,
2.365094,0.7768,0.1666,0.7038,2.3618,0.9978,-0.0686,0.1002,-0.2239,-0.0394,3.4125,-43.1813,-13.0125,198.1392,-23.1522,9.1206,
2.366411,0.5464,0.2733,0.8990,2.3618,0.9978,-0.0686,0.1002,-0.2239,-0.0394,3.4125,-43.1813,-13.0125,198.1392,-23.1522,9.1206,
2.367552,0.5464,0.2733,0.8990,4.2673,-1.8598,-0.4188,0.1002,-0.2239,-0.0394,3.4125,-43.1813,-13.0125,198.1392,-23.1522,9.1206,
2.371046,0.5464,0.2733,0.8990,4.2673,-1.8598,-0.4188,0.1002,-0.2239,-0.0394,3.4125,-43.1813,-13.0125,199.4845,-23.4918,10.0585,
2.372583,0.5464,0.2733,0.8990,4.2673,-1.8598,-0.4188,0.0032,-0.2028,0.0136,3.4125,-43.1813,-13.0125,199.4845,-23.4918,10.0585,
2.396937,0.5464,0.2733,0.8990,4.2673,-1.8598,-0.4188,0.0032,-0.2028,0.0136,2.4188,-42.9750,-14.2125,199.4845,-23.4918,10.0585,
2.431653,0.5464,0.2733,0.8990,4.2673,-1.8598,-0.4188,-0.0639,-0.1717,0.0708,2.4188,-42.9750,-14.2125,199.4845,-23.4918,10.0585,
2.433503,0.5464,0.2733,0.8990,4.2673,-1.8598,-0.4188,-0.0639,-0.1717,0.0708,2.4188,-42.9750,-14.2125,200.6519,-23.7246,10.9027,
2.434556,0.5464,0.2733,0.8990,0.7255,-0.6641,1.5363,-0.0639,-0.1717,0.0708,2.4188,-42.9750,-14.2125,200.6519,-23.7246,10.9027,
2.439568,0.3293,0.4363,0.9540,0.7255,-0.6641,1.5363,-0.0639,-0.1717,0.0708,2.4188,-42.9750,-14.2125,200.6519,-23.7246,10.9027,
2.441456,0.4514,0.2470,0.9247,0.7255,-0.6641,1.5363,-0.0639,-0.1717,0.0708,2.4188,-42.9750,-14.2125,200.6519,-23.7246,10.9027,
2.442515,0.3068,0.3318,1.0229,0.7255,-0.6641,1.5363,-0.0639,-0.1717,0.0708,2.4188,-42.9750,-14.2125,200.6519,-23.7246,10.9027,
2.443573,0.2633,0.2594,1.0236,0.7255,-0.6641,1.5363,-0.0639,-0.1717,0.0708,2.4188,-42.9750,-14.2125,200.6519,-23.7246,10.9027,
2.466553,0.2633,0.2594,1.0236,0.7255,-0.6641,1.5363,-0.0639,-0.1717,0.0708,1.2938,-42.7688,-15.4125,200.6519,-23.7246,10.9027,
2.498158,0.2633,0.2594,1.0236,0.7255,-0.6641,1.5363,-0.0955,-0.1084,0.1264,1.2938,-42.7688,-15.4125,200.6519,-23.7246,10.9027,
2.500744,0.2633,0.2594,1.0236,0.2826,-1.9546,1.3240,-0.0955,-0.1084,0.1264,1.2938,-42.7688,-15.4125,200.6519,-23.7246,10.9027,
2.502565,0.2633,0.2594,1.0236,0.2826,-1.9546,1.3240,-0.0955,-0.1084,0.1264,1.2938,-42.7688,-15.4125,201.6504,-23.8402,11.6869,
2.519102,0.4189,0.2589,0.9012,0.2826,-1.9546,1.3240,-0.0955,-0.1084,0.1264,1.2938,-42.7688,-15.4125,201.6504,-23.8402,11.6869,
2.521240,0.4023,0.1939,0.9493,0.2826,-1.9546,1.3240,-0.0955,-0.1084,0.1264,1.2938,-42.7688,-15.4125,201.6504,-23.8402,11.6869,
2.522292,0.1976,0.1969,1.0531,0.2826,-1.9546,1.3240,-0.0955,-0.1084,0.1264,1.2938,-42.7688,-15.4125,201.6504,-23.8402,11.6869,
2.523292,0.3185,0.0967,0.9706,0.2826,-1.9546,1.3240,-0.0955,-0.1084,0.1264,1.2938,-42.7688,-15.4125,201.6504,-23.8402,11.6869,
2.537377,0.3185,0.0967,0.9706,0.2826,-1.9546,1.3240,-0.0955,-0.1084,0.1264,0.1875,-42.5438,-16.6313,201.6504,-23.8402,11.6869,
2.567419,0.3185,0.0967,0.9706,0.2826,-1.9546,1.3240,-0.1078,-0.0140,0.1754,0.1875,-42.5438,-16.6313,201.6504,-23.8402,11.6869,
2.569732,0.3185,0.0967,0.9706,2.9894,1.3235,-1.8260,-0.1078,-0.0140,0.1754,0.1875,-42.5438,-16.6313,201.6504,-23.8402,11.6869,
2.571302,0.3185,0.0967,0.9706,2.9894,1.3235,-1.8260,-0.1078,-0.0140,0.1754,0.1875,-42.5438,-16.6313,202.5709,-24.0764,12.3941,
2.597109,0.4898,0.1143,0.7793,2.9894,1.3235,-1.8260,-0.1078,-0.0140,0.1754,0.1875,-42.5438,-16.6313,202.5709,-24.0764,12.3941,
2.599612,0.5152,0.5340,0.7158,2.9894,1.3235,-1.8260,-0.1078,-0.0140,0.1754,0.1875,-42.5438,-16.6313,202.5709,-24.0764,12.3941,
2.601321,0.5691,0.3967,0.7798,2.9894,1.3235,-1.8260,-0.1078,-0.0140,0.1754,0.1875,-42.5438,-16.6313,202.5709,-24.0764,12.3941,
2.602749,0.4619,0.3962,0.8829,2.9894,1.3235,-1.8260,-0.1078,-0.0140,0.1754,0.1875,-42.5438,-16.6313,202.5709,-24.0764,12.3941,
2.606569,0.4619,0.3962,0.8829,2.9894,1.3235,-1.8260,-0.1078,-0.0140,0.1754,-0.7875,-42.3938,-17.3625,202.5709,-24.0764,12.3941,
2.633058,0.4619,0.3962,0.8829,2.9894,1.3235,-1.8260,-0.1155,0.0808,0.2116,-0.7875,-42.3938,-17.3625,202.5709,-24.0764,12.3941,
2.635019,0.4619,0.3962,0.8829,2.9894,1.3235,-1.8260,-0.1155,0.0808,0.2116,-0.7875,-42.3938,-17.3625,203.3932,-24.3713,12.9872,
2.636370,0.4619,0.3962,0.8829,0.3908,-1.2405,0.6998,-0.1155,0.0808,0.2116,-0.7875,-42.3938,-17.3625,203.3932,-24.3713,12.9872,
2.675728,0.3063,0.3061,0.9464,0.3908,-1.2405,0.6998,-0.1155,0.0808,0.2116,-0.7875,-42.3938,-17.3625,203.3932,-24.3713,12.9872,
2.678316,0.2650,0.2978,0.9439,0.3908,-1.2405,0.6998,-0.1155,0.0808,0.2116,-0.7875,-42.3938,-17.3625,203.3932,-24.3713,12.9872,
2.680117,0.2452,0.4070,0.8929,0.3908,-1.2405,0.6998,-0.1155,0.0808,0.2116,-0.7875,-42.3938,-17.3625,203.3932,-24.3713,12.9872,
2.681192,0.2425,0.4121,0.8792,0.3908,-1.2405,0.6998,-0.1155,0.0808,0.2116,-0.7875,-42.3938,-17.3625,203.3932,-24.3713,12.9872,
2.682188,0.2425,0.4121,0.8792,0.3908,-1.2405,0.6998,-0.1155,0.0808,0.2116,-1.3313,-42.3188,-17.8313,203.3932,-24.3713,12.9872,
2.698606,0.2425,0.4121,0.8792,0.3908,-1.2405,0.6998,-0.1200,0.1387,0.2279,-1.3313,-42.3188,-17.8313,203.3932,-24.3713,12.9872,
2.700677,0.2425,0.4121,0.8792,-1.2519,-0.7368,0.6787,-0.1200,0.1387,0.2279,-1.3313,-42.3188,-17.8313,203.3932,-24.3713,12.9872,
2.701802,0.2425,0.4121,0.8792,-1.2519,-0.7368,0.6787,-0.1200,0.1387,0.2279,-1.3313,-42.3188,-17.8313,204.0802,-24.5758,13.4779,
2.747017,0.2425,0.4121,0.8792,-1.2519,-0.7368,0.6787,-0.1200,0.1387,0.2279,-1.4250,-42.2063,-18.0938,204.0802,-24.5758,13.4779,
2.754208,0.1577,0.3232,0.9229,-1.2519,-0.7368,0.6787,-0.1200,0.1387,0.2279,-1.4250,-42.2063,-18.0938,204.0802,-24.5758,13.4779,
2.756004,0.0290,0.3085,0.9928,-1.2519,-0.7368,0.6787,-0.1200,0.1387,0.2279,-1.4250,-42.2063,-18.0938,204.0802,-24.5758,13.4779,
2.757362,0.1067,0.0645,1.0007,-1.2519,-0.7368,0.6787,-0.1200,0.1387,0.2279,-1.4250,-42.2063,-18.0938,204.0802,-24.5758,13.4779,
2.758711,0.0957,0.0173,0.9977,-1.2519,-0.7368,0.6787,-0.1200,0.1387,0.2279,-1.4250,-42.2063,-18.0938,204.0802,-24.5758,13.4779,
2.766462,0.0957,0.0173,0.9977,-1.2519,-0.7368,0.6787,-0.1171,0.1590,0.2230,-1.4250,-42.2063,-18.0938,204.0802,-24.5758,13.4779,
2.768566,0.0957,0.0173,0.9977,-1.2519,-0.7368,0.6787,-0.1171,0.1590,0.2230,-1.4250,-42.2063,-18.0938,204.5402,-24.6225,13.8020,
2.769734,0.0957,0.0173,0.9977,-2.3018,-2.4383,0.8806,-0.1171,0.1590,0.2230,-1.4250,-42.2063,-18.0938,204.5402,-24.6225,13.8020,
2.817475,0.0957,0.0173,0.9977,-2.3018,-2.4383,0.8806,-0.1171,0.1590,0.2230,-1.7250,-42.2438,-18.3563,204.5402,-24.6225,13.8020,
2.835011,0.0957,0.0173,0.9977,-2.3018,-2.4383,0.8806,-0.1064,0.1761,0.2049,-1.7250,-42.2438,-18.3563,204.5402,-24.6225,13.8020,
2.837212,0.0070,-0.0377,1.0214,-2.3018,-2.4383,0.8806,-0.1064,0.1761,0.2049,-1.7250,-42.2438,-18.3563,204.5402,-24.6225,13.8020,
2.839005,0.2452,-0.7471,1.0512,-2.3018,-2.4383,0.8806,-0.1064,0.1761,0.2049,-1.7250,-42.2438,-18.3563,204.5402,-24.6225,13.8020,
2.840458,0.3718,-0.0660,0.8973,-2.3018,-2.4383,0.8806,-0.1064,0.1761,0.2049,-1.7250,-42.2438,-18.3563,204.5402,-24.6225,13.8020,
2.841507,0.4116,0.8643,0.7426,-2.3018,-2.4383,0.8806,-0.1064,0.1761,0.2049,-1.7250,-42.2438,-18.3563,204.5402,-24.6225,13.8020,
2.842524,0.4116,0.8643,0.7426,-2.3772,-2.4619,0.9122,-0.1064,0.1761,0.2049,-1.7250,-42.2438,-18.3563,204.5402,-24.6225,13.8020,
2.843490,0.4116,0.8643,0.7426,-2.3772,-2.4619,0.9122,-0.1064,0.1761,0.2049,-1.7250,-42.2438,-18.3563,205.0714,-24.8312,14.2557,
2.886668,0.4116,0.8643,0.7426,-2.3772,-2.4619,0.9122,-0.1064,0.1761,0.2049,-2.3625,-42.1875,-18.6562,205.0714,-24.8312,14.2557,
2.898593,0.4116,0.8643,0.7426,-2.3772,-2.4619,0.9122,-0.0981,0.1899,0.1854,-2.3625,-42.1875,-18.6562,205.0714,-24.8312,14.2557,
2.906592,0.4116,0.8643,0.7426,1.6196,5.2161,-0.8909,-0.0981,0.1899,0.1854,-2.3625,-42.1875,-18.6562,205.0714,-24.8312,14.2557,
2.908543,0.4116,0.8643,0.7426,1.6196,5.2161,-0.8909,-0.0981,0.1899,0.1854,-2.3625,-42.1875,-18.6562,205.5208,-25.0145,14.8428,
2.911448,0.6195,1.2784,0.6307,1.6196,5.2161,-0.8909,-0.0981,0.1899,0.1854,-2.3625,-42.1875,-18.6562,205.5208,-25.0145,14.8428,
2.912501,0.7395,0.8741,0.7385,1.6196,5.2161,-0.8909,-0.0981,0.1899,0.1854,-2.3625,-42.1875,-18.6562,205.5208,-25.0145,14.8428,
2.913464,0.7724,0.1475,0.8670,1.6196,5.2161,-0.8909,-0.0981,0.1899,0.1854,-2.3625,-42.1875,-18.6562,205.5208,-25.0145,14.8428,
2.914433,0.2567,0.2826,1.1575,1.6196,5.2161,-0.8909,-0.0981,0.1899,0.1854,-2.3625,-42.1875,-18.6562,205.5208,-25.0145,14.8428,
2.957144,0.2567,0.2826,1.1575,1.6196,5.2161,-0.8909,-0.0981,0.1899,0.1854,-2.9625,-42.0750,-18.6750,205.5208,-25.0145,14.8428,
2.965847,0.2567,0.2826,1.1575,1.6196,5.2161,-0.8909,-0.1010,0.1609,0.1753,-2.9625,-42.0750,-18.6750,205.5208,-25.0145,14.8428,
2.968407,0.2567,0.2826,1.1575,0.7689,-1.1333,2.5299,-0.1010,0.1609,0.1753,-2.9625,-42.0750,-18.6750,205.5208,-25.0145,14.8428,
2.970245,0.2567,0.2826,1.1575,0.7689,-1.1333,2.5299,-0.1010,0.1609,0.1753,-2.9625,-42.0750,-18.6750,205.6341,-24.9508,15.3548,
2.993403,0.0869,0.3540,1.0845,0.7689,-1.1333,2.5299,-0.1010,0.1609,0.1753,-2.9625,-42.0750,-18.6750,205.6341,-24.9508,15.3548,
2.995169,0.1910,0.2672,0.9811,0.7689,-1.1333,2.5299,-0.1010,0.1609,0.1753,-2.9625,-42.0750,-18.6750,205.6341,-24.9508,15.3548,
2.996408,0.3576,0.2514,0.8189,0.7689,-1.1333,2.5299,-0.1010,0.1609,0.1753,-2.9625,-42.0750,-18.6750,205.6341,-24.9508,15.3548,
2.997455,0.4304,0.2694,0.8091,0.7689,-1.1333,2.5299,-0.1010,0.1609,0.1753,-2.9625,-42.0750,-18.6750,205.6341,-24.9508,15.3548,
3.027074,0.4304,0.2694,0.8091,0.7689,-1.1333,2.5299,-0.1010,0.1609,0.1753,-3.6188,-42.1125,-18.3750,205.6341,-24.9508,15.3548,
3.038151,0.4304,0.2694,0.8091,0.7689,-1.1333,2.5299,-0.1069,0.0827,0.1796,-3.6188,-42.1125,-18.3750,205.6341,-24.9508,15.3548,
3.040145,0.4304,0.2694,0.8091,0.9888,-1.5943,-0.7211,-0.1069,0.0827,0.1796,-3.6188,-42.1125,-18.3750,205.6341,-24.9508,15.3548,
3.041515,0.4304,0.2694,0.8091,0.9888,-1.5943,-0.7211,-0.1069,0.0827,0.1796,-3.6188,-42.1125,-18.3750,205.5760,-24.8111,15.9378,
3.072609,0.4446,0.2504,0.8028,0.9888,-1.5943,-0.7211,-0.1069,0.0827,0.1796,-3.6188,-42.1125,-18.3750,205.5760,-24.8111,15.9378,
3.074363,0.3329,0.2499,0.8919,0.9888,-1.5943,-0.7211,-0.1069,0.0827,0.1796,-3.6188,-42.1125,-18.3750,205.5760,-24.8111,15.9378,
3.075363,0.3149,0.2516,0.9034,0.9888,-1.5943,-0.7211,-0.1069,0.0827,0.1796,-3.6188,-42.1125,-18.3750,205.5760,-24.8111,15.9378,
3.076361,0.2743,0.2328,0.9704,0.9888,-1.5943,-0.7211,-0.1069,0.0827,0.1796,-3.6188,-42.1125,-18.3750,205.5760,-24.8111,15.9378,
3.099134,0.2743,0.2328,0.9704,0.9888,-1.5943,-0.7211,-0.1069,0.0827,0.1796,-4.1813,-42.1125,-18.2063,205.5760,-24.8111,15.9378,
3.101558,0.2743,0.2328,0.9704,0.9888,-1.5943,-0.7211,-0.1045,0.0072,0.1962,-4.1813,-42.1125,-18.2063,205.5760,-24.8111,15.9378,
3.102964,0.2743,0.2328,0.9704,0.2121,-1.5757,0.3004,-0.1045,0.0072,0.1962,-4.1813,-42.1125,-18.2063,205.5760,-24.8111,15.9378,
3.104444,0.2743,0.2328,0.9704,0.2121,-1.5757,0.3004,-0.1045,0.0072,0.1962,-4.1813,-42.1125,-18.2063,205.2994,-24.6694,16.5269,
3.148710,0.2948,0.2475,0.9664,0.2121,-1.5757,0.3004,-0.1045,0.0072,0.1962,-4.1813,-42.1125,-18.2063,205.2994,-24.6694,16.5269,
3.151733,0.3554,0.2467,0.9466,0.2121,-1.5757,0.3004,-0.1045,0.0072,0.1962,-4.1813,-42.1125,-18.2063,205.2994,-24.6694,16.5269,
3.153149,0.3461,0.1944,0.9249,0.2121,-1.5757,0.3004,-0.1045,0.0072,0.1962,-4.1813,-42.1125,-18.2063,205.2994,-24.6694,16.5269,
3.154229,0.2535,0.2440,1.0109,0.2121,-1.5757,0.3004,-0.1045,0.0072,0.1962,-4.1813,-42.1125,-18.2063,205.2994,-24.6694,16.5269,
3.165744,0.2535,0.2440,1.0109,0.2121,-1.5757,0.3004,-0.0918,-0.0155,0.2164,-4.1813,-42.1125,-18.2063,205.2994,-24.6694,16.5269,
3.167708,0.2535,0.2440,1.0109,0.6804,-1.4008,0.6981,-0.0918,-0.0155,0.2164,-4.1813,-42.1125,-18.2063,205.2994,-24.6694,16.5269,
3.169097,0.2535,0.2440,1.0109,0.6804,-1.4008,0.6981,-0.0918,-0.0155,0.2164,-4.1813,-42.1125,-18.2063,204.8329,-24.5453,17.1466,
3.170198,0.2535,0.2440,1.0109,0.6804,-1.4008,0.6981,-0.0918,-0.0155,0.2164,-4.8188,-42.0188,-18.3563,204.8329,-24.5453,17.1466,
3.227375,0.2755,0.1541,0.9972,0.6804,-1.4008,0.6981,-0.0918,-0.0155,0.2164,-4.8188,-42.0188,-18.3563,204.8329,-24.5453,17.1466,
3.229237,0.3080,0.2401,0.9352,0.6804,-1.4008,0.6981,-0.0918,-0.0155,0.2164,-4.8188,-42.0188,-18.3563,204.8329,-24.5453,17.1466,
3.230332,0.2904,-0.0355,0.9422,0.6804,-1.4008,0.6981,-0.0918,-0.0155,0.2164,-4.8188,-42.0188,-18.3563,204.8329,-24.5453,17.1466,
3.231420,0.2572,0.4432,0.8849,0.6804,-1.4008,0.6981,-0.0918,-0.0155,0.2164,-4.8188,-42.0188,-18.3563,204.8329,-24.5453,17.1466,
3.232937,0.2572,0.4432,0.8849,0.6804,-1.4008,0.6981,-0.0792,0.0079,0.2315,-4.8188,-42.0188,-18.3563,204.8329,-24.5453,17.1466,
3.233955,0.2572,0.4432,0.8849,0.6804,-1.4008,0.6981,-0.0792,0.0079,0.2315,-4.8188,-42.0188,-18.3563,204.8329,-24.5453,17.1466,
3.234890,0.2572,0.4432,0.8849,0.1305,-1.1779,0.6587,-0.0792,0.0079,0.2315,-4.8188,-42.0188,-18.3563,204.8329,-24.5453,17.1466,
3.238256,0.2572,0.4432,0.8849,0.1305,-1.1779,0.6587,-0.0792,0.0079,0.2315,-5.8125,-41.8500,-18.5250,204.8329,-24.5453,17.1466,
3.299061,0.2572,0.4432,0.8849,0.8541,-1.3302,-0.4063,-0.0792,0.0079,0.2315,-5.8125,-41.8500,-18.5250,204.8329,-24.5453,17.1466,
3.301746,0.2572,0.4432,0.8849,0.8541,-1.3302,-0.4063,-0.0791,0.0486,0.2413,-5.8125,-41.8500,-18.5250,204.8329,-24.5453,17.1466,
3.303634,0.2572,0.4432,0.8849,0.8541,-1.3302,-0.4063,-0.0791,0.0486,0.2413,-5.8125,-41.8500,-18.5250,202.8982,-24.0248,17.7249,
3.305177,0.3051,0.3136,0.9002,0.8541,-1.3302,-0.4063,-0.0791,0.0486,0.2413,-5.8125,-41.8500,-18.5250,202.8982,-24.0248,17.7249,
3.306243,0.3955,0.1179,0.8614,0.8541,-1.3302,-0.4063,-0.0791,0.0486,0.2413,-5.8125,-41.8500,-18.5250,202.8982,-24.0248,17.7249,
3.307227,0.1600,0.0154,1.0762,0.8541,-1.3302,-0.4063,-0.0791,0.0486,0.2413,-5.8125,-41.8500,-18.5250,202.8982,-24.0248,17.7249,
3.308340,0.0916,0.0835,1.0820,0.8541,-1.3302,-0.4063,-0.0791,0.0486,0.2413,-5.8125,-41.8500,-18.5250,202.8982,-24.0248,17.7249,
3.309326,0.0916,0.0835,1.0820,0.8541,-1.3302,-0.4063,-0.0791,0.0486,0.2413,-6.8625,-41.5688,-18.8438,202.8982,-24.0248,17.7249,
3.366260,0.0916,0.0835,1.0820,0.8541,-1.3302,-0.4063,-0.0791,0.0486,0.2413,-6.8625,-41.5688,-18.8438,202.8982,-24.0248,17.7249,
3.375584,0.0916,0.0835,1.0820,0.8541,-1.3302,-0.4063,-0.0943,0.0938,0.2492,-6.8625,-41.5688,-18.8438,202.8982,-24.0248,17.7249,
3.386801,0.0916,0.0835,1.0820,-0.4120,-0.7011,1.1299,-0.0943,0.0938,0.2492,-6.8625,-41.5688,-18.8438,202.8982,-24.0248,17.7249,
3.394422,0.0916,0.0835,1.0820,-0.4120,-0.7011,1.1299,-0.0943,0.0938,0.2492,-7.5000,-41.2688,-19.2000,202.8982,-24.0248,17.7249,
3.401938,0.3385,0.3855,0.9195,-0.4120,-0.7011,1.1299,-0.0943,0.0938,0.2492,-7.5000,-41.2688,-19.2000,202.8982,-24.0248,17.7249,
3.409775,0.5049,0.4432,0.7674,-0.4120,-0.7011,1.1299,-0.0943,0.0938,0.2492,-7.5000,-41.2688,-19.2000,202.8982,-24.0248,17.7249,
3.413854,0.4201,0.2274,0.9210,-0.4120,-0.7011,1.1299,-0.0943,0.0938,0.2492,-7.5000,-41.2688,-19.2000,202.8982,-24.0248,17.7249,
3.418785,0.3581,0.1886,0.9652,-0.4120,-0.7011,1.1299,-0.0943,0.0938,0.2492,-7.5000,-41.2688,-19.2000,202.8982,-24.0248,17.7249,
3.433683,0.3581,0.1886,0.9652,-0.4120,-0.7011,1.1299,-0.1159,0.1310,0.2508,-7.5000,-41.2688,-19.2000,202.8982,-24.0248,17.7249,
3.436831,0.3581,0.1886,0.9652,0.6328,-1.8332,0.9702,-0.1159,0.1310,0.2508,-7.5000,-41.2688,-19.2000,202.8982,-24.0248,17.7249,
3.439045,0.3581,0.1886,0.9652,0.6328,-1.8332,0.9702,-0.1159,0.1310,0.2508,-7.5000,-41.2688,-19.2000,200.8106,-24.0287,17.9666,
3.447522,0.3581,0.1886,0.9652,0.6328,-1.8332,0.9702,-0.1159,0.1310,0.2508,-7.3688,-41.0250,-19.5188,200.8106,-24.0287,17.9666,
3.461733,0.2919,0.0537,1.0329,0.6328,-1.8332,0.9702,-0.1159,0.1310,0.2508,-7.3688,-41.0250,-19.5188,200.8106,-24.0287,17.9666,
3.464699,0.2056,0.2497,1.0256,0.6328,-1.8332,0.9702,-0.1159,0.1310,0.2508,-7.3688,-41.0250,-19.5188,200.8106,-24.0287,17.9666,
3.467035,0.1084,0.4018,0.9457,0.6328,-1.8332,0.9702,-0.1159,0.1310,0.2508,-7.3688,-41.0250,-19.5188,200.8106,-24.0287,17.9666,
3.469385,0.0659,0.2592,0.9400,0.6328,-1.8332,0.9702,-0.1159,0.1310,0.2508,-7.3688,-41.0250,-19.5188,200.8106,-24.0287,17.9666,
3.499369,0.0659,0.2592,0.9400,0.6328,-1.8332,0.9702,-0.1293,0.1441,0.2378,-7.3688,-41.0250,-19.5188,200.8106,-24.0287,17.9666,
3.502001,0.0659,0.2592,0.9400,-2.5563,-0.8411,0.8146,-0.1293,0.1441,0.2378,-7.3688,-41.0250,-19.5188,200.8106,-24.0287,17.9666,
3.503866,0.0659,0.2592,0.9400,-2.5563,-0.8411,0.8146,-0.1293,0.1441,0.2378,-7.3688,-41.0250,-19.5188,200.8106,-24.0287,17.9666,
3.517656,0.0659,0.2592,0.9400,-2.5563,-0.8411,0.8146,-0.1293,0.1441,0.2378,-7.1813,-40.8750,-19.9125,200.8106,-24.0287,17.9666,
3.541697,0.1778,0.2110,0.8910,-2.5563,-0.8411,0.8146,-0.1293,0.1441,0.2378,-7.1813,-40.8750,-19.9125,200.8106,-24.0287,17.9666,
3.544670,0.2586,0.1817,0.9100,-2.5563,-0.8411,0.8146,-0.1293,0.1441,0.2378,-7.1813,-40.8750,-19.9125,200.8106,-24.0287,17.9666,
3.546713,0.3092,0.1644,0.9000,-2.5563,-0.8411,0.8146,-0.1293,0.1441,0.2378,-7.1813,-40.8750,-19.9125,200.8106,-24.0287,17.9666,
3.548678,0.3505,0.1593,0.8631,-2.5563,-0.8411,0.8146,-0.1293,0.1441,0.2378,-7.1813,-40.8750,-19.9125,200.8106,-24.0287,17.9666,
3.565263,0.3505,0.1593,0.8631,0.2735,-2.2320,0.0451,-0.1293,0.1441,0.2378,-7.1813,-40.8750,-19.9125,200.8106,-24.0287,17.9666,
3.567591,0.3505,0.1593,0.8631,0.2735,-2.2320,0.0451,-0.1293,0.1441,0.2378,-7.1813,-40.8750,-19.9125,199.0152,-24.1235,18.1148,
3.569121,0.3505,0.1593,0.8631,0.2735,-2.2320,0.0451,-0.1273,0.1270,0.2065,-7.1813,-40.8750,-19.9125,199.0152,-24.1235,18.1148,
3.586893,0.3505,0.1593,0.8631,0.2735,-2.2320,0.0451,-0.1273,0.1270,0.2065,-6.9188,-40.5938,-20.4000,199.0152,-24.1235,18.1148,
3.619736,0.3500,0.1575,0.9105,0.2735,-2.2320,0.0451,-0.1273,0.1270,0.2065,-6.9188,-40.5938,-20.4000,199.0152,-24.1235,18.1148,
3.622823,0.4013,0.1671,0.9679,0.2735,-2.2320,0.0451,-0.1273,0.1270,0.2065,-6.9188,-40.5938,-20.4000,199.0152,-24.1235,18.1148,
3.625467,0.3476,0.1522,1.0133,0.2735,-2.2320,0.0451,-0.1273,0.1270,0.2065,-6.9188,-40.5938,-20.4000,199.0152,-24.1235,18.1148,
3.627665,0.2829,0.1458,1.0356,0.2735,-2.2320,0.0451,-0.1273,0.1270,0.2065,-6.9188,-40.5938,-20.4000,199.0152,-24.1235,18.1148,
3.631672,0.2829,0.1458,1.0356,0.2735,-2.2320,0.0451,-0.1180,0.0906,0.1643,-6.9188,-40.5938,-20.4000,199.0152,-24.1235,18.1148,
3.633912,0.2829,0.1458,1.0356,0.6395,-2.2588,1.1629,-0.1180,0.0906,0.1643,-6.9188,-40.5938,-20.4000,199.0152,-24.1235,18.1148,
3.636280,0.2829,0.1458,1.0356,0.6395,-2.2588,1.1629,-0.1180,0.0906,0.1643,-6.9188,-40.5938,-20.4000,199.0152,-24.1235,18.1148,
3.658330,0.2829,0.1458,1.0356,0.6395,-2.2588,1.1629,-0.1180,0.0906,0.1643,-6.7313,-40.2563,-21.0938,199.0152,-24.1235,18.1148,
3.698758,0.2829,0.1458,1.0356,0.0830,-2.2537,0.9269,-0.1180,0.0906,0.1643,-6.7313,-40.2563,-21.0938,199.0152,-24.1235,18.1148,
3.701840,0.2829,0.1458,1.0356,0.0830,-2.2537,0.9269,-0.1180,0.0906,0.1643,-6.7313,-40.2563,-21.0938,199.0152,-24.1235,18.1148,
3.704484,0.2773,0.1546,1.0177,0.0830,-2.2537,0.9269,-0.1180,0.0906,0.1643,-6.7313,-40.2563,-21.0938,199.0152,-24.1235,18.1148,
3.706667,0.3046,0.1529,0.9894,0.0830,-2.2537,0.9269,-0.1180,0.0906,0.1643,-6.7313,-40.2563,-21.0938,199.0152,-24.1235,18.1148,
3.708939,0.3212,0.1671,0.8443,0.0830,-2.2537,0.9269,-0.1180,0.0906,0.1643,-6.7313,-40.2563,-21.0938,199.0152,-24.1235,18.1148,
3.711135,0.0251,0.1644,0.7984,0.0830,-2.2537,0.9269,-0.1180,0.0906,0.1643,-6.7313,-40.2563,-21.0938,199.0152,-24.1235,18.1148,
3.713412,0.0251,0.1644,0.7984,0.0830,-2.2537,0.9269,-0.1118,0.0522,0.1223,-6.7313,-40.2563,-21.0938,199.0152,-24.1235,18.1148,
3.730586,0.0251,0.1644,0.7984,0.0830,-2.2537,0.9269,-0.1118,0.0522,0.1223,-6.3188,-39.9750,-21.6375,199.0152,-24.1235,18.1148,
3.767473,0.0251,0.1644,0.7984,0.0830,-2.2537,0.9269,-0.1107,0.0319,0.0901,-6.3188,-39.9750,-21.6375,199.0152,-24.1235,18.1148,
3.777711,0.0251,0.1644,0.7984,-0.7801,-2.4422,0.5089,-0.1107,0.0319,0.0901,-6.3188,-39.9750,-21.6375,199.0152,-24.1235,18.1148,
3.788338,0.0251,0.1644,0.7984,-0.7801,-2.4422,0.5089,-0.1107,0.0319,0.0901,-6.3188,-39.9750,-21.6375,196.8493,-22.9173,18.2330,
3.796988,0.2846,0.1226,0.7625,-0.7801,-2.4422,0.5089,-0.1107,0.0319,0.0901,-6.3188,-39.9750,-21.6375,196.8493,-22.9173,18.2330,
3.803367,0.2328,0.0991,0.9792,-0.7801,-2.4422,0.5089,-0.1107,0.0319,0.0901,-6.3188,-39.9750,-21.6375,196.8493,-22.9173,18.2330,
3.808077,0.0493,0.0867,1.3783,-0.7801,-2.4422,0.5089,-0.1107,0.0319,0.0901,-6.3188,-39.9750,-21.6375,196.8493,-22.9173,18.2330,
3.812249,0.2459,0.1162,0.6689,-0.7801,-2.4422,0.5089,-0.1107,0.0319,0.0901,-6.3188,-39.9750,-21.6375,196.8493,-22.9173,18.2330,
3.817370,0.2459,0.1162,0.6689,-0.7801,-2.4422,0.5089,-0.1107,0.0319,0.0901,-5.8125,-39.6938,-22.3125,196.8493,-22.9173,18.2330,
3.832331,0.2459,0.1162,0.6689,-1.1554,-2.6806,1.1246,-0.1107,0.0319,0.0901,-5.8125,-39.6938,-22.3125,196.8493,-22.9173,18.2330,
3.835097,0.2459,0.1162,0.6689,-1.1554,-2.6806,1.1246,-0.1107,0.0319,0.0901,-5.8125,-39.6938,-22.3125,195.8549,-21.8181,17.9205,
3.837251,0.2459,0.1162,0.6689,-1.1554,-2.6806,1.1246,-0.1183,0.0552,0.0793,-5.8125,-39.6938,-22.3125,195.8549,-21.8181,17.9205,
3.857021,0.2647,0.0923,0.7730,-1.1554,-2.6806,1.1246,-0.1183,0.0552,0.0793,-5.8125,-39.6938,-22.3125,195.8549,-21.8181,17.9205,
3.866877,-0.0308,0.0471,1.4819,-1.1554,-2.6806,1.1246,-0.1183,0.0552,0.0793,-5.8125,-39.6938,-22.3125,195.8549,-21.8181,17.9205,
3.875464,0.0493,0.0718,1.2169,-1.1554,-2.6806,1.1246,-0.1183,0.0552,0.0793,-5.8125,-39.6938,-22.3125,195.8549,-21.8181,17.9205,
3.881437,0.2758,0.0850,0.4939,-1.1554,-2.6806,1.1246,-0.1183,0.0552,0.0793,-5.8125,-39.6938,-22.3125,195.8549,-21.8181,17.9205,
3.886042,0.2758,0.0850,0.4939,-1.1554,-2.6806,1.1246,-0.1183,0.0552,0.0793,-5.0625,-39.4125,-23.2125,195.8549,-21.8181,17.9205,
3.900123,0.2758,0.0850,0.4939,-1.1554,-2.6806,1.1246,-0.1183,0.0552,0.0793,-5.0625,-39.4125,-23.2125,194.5856,-20.4361,17.2819,
3.905890,0.2758,0.0850,0.4939,-0.4766,-2.4008,-4.2882,-0.1183,0.0552,0.0793,-5.0625,-39.4125,-23.2125,194.5856,-20.4361,17.2819,
3.910214,0.2758,0.0850,0.4939,-0.4766,-2.4008,-4.2882,-0.1404,0.1339,0.0933,-5.0625,-39.4125,-23.2125,194.5856,-20.4361,17.2819,
3.935328,0.1927,0.0764,0.6090,-0.4766,-2.4008,-4.2882,-0.1404,0.1339,0.0933,-5.0625,-39.4125,-23.2125,194.5856,-20.4361,17.2819,
3.938979,-0.1386,0.0048,1.6808,-0.4766,-2.4008,-4.2882,-0.1404,0.1339,0.0933,-5.0625,-39.4125,-23.2125,194.5856,-20.4361,17.2819,
3.941217,-0.1046,0.0046,1.5440,-0.4766,-2.4008,-4.2882,-0.1404,0.1339,0.0933,-5.0625,-39.4125,-23.2125,194.5856,-20.4361,17.2819,
3.943406,0.1771,0.0537,0.6403,-0.4766,-2.4008,-4.2882,-0.1404,0.1339,0.0933,-5.0625,-39.4125,-23.2125,194.5856,-20.4361,17.2819,
3.945614,0.1771,0.0537,0.6403,-0.4766,-2.4008,-4.2882,-0.1404,0.1339,0.0933,-4.1063,-38.8875,-24.1125,194.5856,-20.4361,17.2819,
3.965903,0.1771,0.0537,0.6403,-0.4766,-2.4008,-4.2882,-0.1781,0.2425,0.1170,-4.1063,-38.8875,-24.1125,194.5856,-20.4361,17.2819,
3.972297,0.1771,0.0537,0.6403,-1.0088,-2.5158,-2.6925,-0.1781,0.2425,0.1170,-4.1063,-38.8875,-24.1125,194.5856,-20.4361,17.2819,
3.975638,0.1771,0.0537,0.6403,-1.0088,-2.5158,-2.6925,-0.1781,0.2425,0.1170,-4.1063,-38.8875,-24.1125,193.2601,-18.9537,16.4968,
4.010119,0.1771,0.0537,0.6403,-1.0088,-2.5158,-2.6925,-0.1781,0.2425,0.1170,-3.2063,-38.3625,-25.0125,193.2601,-18.9537,16.4968,
4.022601,0.0302,0.0359,1.0823,-1.0088,-2.5158,-2.6925,-0.1781,0.2425,0.1170,-3.2063,-38.3625,-25.0125,193.2601,-18.9537,16.4968,
4.032252,0.0417,0.0332,1.0434,-1.0088,-2.5158,-2.6925,-0.1781,0.2425,0.1170,-3.2063,-38.3625,-25.0125,193.2601,-18.9537,16.4968,
4.040111,0.0781,0.0374,0.9291,-1.0088,-2.5158,-2.6925,-0.1781,0.2425,0.1170,-3.2063,-38.3625,-25.0125,193.2601,-18.9537,16.4968,
4.044056,-0.0057,0.0232,1.1699,-1.0088,-2.5158,-2.6925,-0.1781,0.2425,0.1170,-3.2063,-38.3625,-25.0125,193.2601,-18.9537,16.4968,
4.048430,-0.0057,0.0232,1.1699,-1.0088,-2.5158,-2.6925,-0.2185,0.3255,0.1220,-3.2063,-38.3625,-25.0125,193.2601,-18.9537,16.4968,
4.053073,-0.0057,0.0232,1.1699,-2.7632,-2.6123,2.6536,-0.2185,0.3255,0.1220,-3.2063,-38.3625,-25.0125,193.2601,-18.9537,16.4968,
4.057893,-0.0057,0.0232,1.1699,-2.7632,-2.6123,2.6536,-0.2185,0.3255,0.1220,-3.2063,-38.3625,-25.0125,192.0481,-17.5633,15.6927,
4.078730,-0.0057,0.0232,1.1699,-2.7632,-2.6123,2.6536,-0.2185,0.3255,0.1220,-2.1750,-37.7063,-25.8938,192.0481,-17.5633,15.6927,
4.094171,0.0693,0.0322,0.9476,-2.7632,-2.6123,2.6536,-0.2185,0.3255,0.1220,-2.1750,-37.7063,-25.8938,192.0481,-17.5633,15.6927,
4.106027,0.0441,0.0305,1.0075,-2.7632,-2.6123,2.6536,-0.2185,0.3255,0.1220,-2.1750,-37.7063,-25.8938,192.0481,-17.5633,15.6927,
4.113765,0.0490,0.0315,0.9867,-2.7632,-2.6123,2.6536,-0.2185,0.3255,0.1220,-2.1750,-37.7063,-25.8938,192.0481,-17.5633,15.6927,
4.118992,0.0432,0.0308,0.9963,-2.7632,-2.6123,2.6536,-0.2185,0.3255,0.1220,-2.1750,-37.7063,-25.8938,192.0481,-17.5633,15.6927,
4.121067,0.0432,0.0308,0.9963,-1.9648,-2.3348,0.3540,-0.2185,0.3255,0.1220,-2.1750,-37.7063,-25.8938,192.0481,-17.5633,15.6927,
4.122752,0.0432,0.0308,0.9963,-1.9648,-2.3348,0.3540,-0.2185,0.3255,0.1220,-2.1750,-37.7063,-25.8938,190.8704,-16.1925,14.8592,
4.124507,0.0432,0.0308,0.9963,-1.9648,-2.3348,0.3540,-0.2404,0.3455,0.0924,-2.1750,-37.7063,-25.8938,190.8704,-16.1925,14.8592,
4.148142,0.0432,0.0308,0.9963,-1.9648,-2.3348,0.3540,-0.2404,0.3455,0.0924,-1.2375,-37.1625,-26.7375,190.8704,-16.1925,14.8592,
4.166276,0.0432,0.0308,0.9963,-1.9648,-2.3348,0.3540,-0.2372,0.3096,0.0395,-1.2375,-37.1625,-26.7375,190.8704,-16.1925,14.8592,
4.173506,0.0432,0.0308,0.9963,-2.0979,-2.1720,0.7783,-0.2372,0.3096,0.0395,-1.2375,-37.1625,-26.7375,190.8704,-16.1925,14.8592,
4.180919,0.0432,0.0308,0.9963,-2.0979,-2.1720,0.7783,-0.2372,0.3096,0.0395,-1.2375,-37.1625,-26.7375,189.8019,-14.9924,14.0156,
4.186228,0.0141,0.0217,1.0705,-2.0979,-2.1720,0.7783,-0.2372,0.3096,0.0395,-1.2375,-37.1625,-26.7375,189.8019,-14.9924,14.0156,
4.191765,0.0290,0.0259,1.0180,-2.0979,-2.1720,0.7783,-0.2372,0.3096,0.0395,-1.2375,-37.1625,-26.7375,189.8019,-14.9924,14.0156,
4.197690,0.0309,0.0273,1.0163,-2.0979,-2.1720,0.7783,-0.2372,0.3096,0.0395,-1.2375,-37.1625,-26.7375,189.8019,-14.9924,14.0156,
4.203272,0.0351,0.0254,1.0148,-2.0979,-2.1720,0.7783,-0.2372,0.3096,0.0395,-1.2375,-37.1625,-26.7375,189.8019,-14.9924,14.0156,
4.218739,0.0351,0.0254,1.0148,-2.0979,-2.1720,0.7783,-0.2372,0.3096,0.0395,-0.3188,-36.7125,-27.2438,189.8019,-14.9924,14.0156,
4.233026,0.0351,0.0254,1.0148,-2.0979,-2.1720,0.7783,-0.2185,0.2511,-0.0140,-0.3188,-36.7125,-27.2438,189.8019,-14.9924,14.0156,
4.235736,0.0351,0.0254,1.0148,-1.7970,-2.0267,0.6043,-0.2185,0.2511,-0.0140,-0.3188,-36.7125,-27.2438,189.8019,-14.9924,14.0156,
4.238081,0.0351,0.0254,1.0148,-1.7970,-2.0267,0.6043,-0.2185,0.2511,-0.0140,-0.3188,-36.7125,-27.2438,188.9101,-13.9527,13.2430,
4.250124,0.0392,0.0303,1.0065,-1.7970,-2.0267,0.6043,-0.2185,0.2511,-0.0140,-0.3188,-36.7125,-27.2438,188.9101,-13.9527,13.2430,
4.253411,0.0419,0.0305,1.0065,-1.7970,-2.0267,0.6043,-0.2185,0.2511,-0.0140,-0.3188,-36.7125,-27.2438,188.9101,-13.9527,13.2430,
4.255462,0.0385,0.0261,1.0168,-1.7970,-2.0267,0.6043,-0.2185,0.2511,-0.0140,-0.3188,-36.7125,-27.2438,188.9101,-13.9527,13.2430,
4.257803,0.0446,0.0293,1.0092,-1.7970,-2.0267,0.6043,-0.2185,0.2511,-0.0140,-0.3188,-36.7125,-27.2438,188.9101,-13.9527,13.2430,
4.289057,0.0446,0.0293,1.0092,-1.7970,-2.0267,0.6043,-0.2185,0.2511,-0.0140,0.4125,-36.2625,-27.7875,188.9101,-13.9527,13.2430,
4.299050,0.0446,0.0293,1.0092,-1.7970,-2.0267,0.6043,-0.1969,0.1990,-0.0529,0.4125,-36.2625,-27.7875,188.9101,-13.9527,13.2430,
4.301303,0.0446,0.0293,1.0092,-1.6995,-1.8583,0.5812,-0.1969,0.1990,-0.0529,0.4125,-36.2625,-27.7875,188.9101,-13.9527,13.2430,
4.303508,0.0446,0.0293,1.0092,-1.6995,-1.8583,0.5812,-0.1969,0.1990,-0.0529,0.4125,-36.2625,-27.7875,188.2877,-13.0591,12.6582,
4.329132,0.0468,0.0288,1.0104,-1.6995,-1.8583,0.5812,-0.1969,0.1990,-0.0529,0.4125,-36.2625,-27.7875,188.2877,-13.0591,12.6582,
4.336715,0.0476,0.0298,1.0124,-1.6995,-1.8583,0.5812,-0.1969,0.1990,-0.0529,0.4125,-36.2625,-27.7875,188.2877,-13.0591,12.6582,
4.341255,0.0505,0.0300,1.0126,-1.6995,-1.8583,0.5812,-0.1969,0.1990,-0.0529,0.4125,-36.2625,-27.7875,188.2877,-13.0591,12.6582,
4.346021,0.0515,0.0313,1.0112,-1.6995,-1.8583,0.5812,-0.1969,0.1990,-0.0529,0.4125,-36.2625,-27.7875,188.2877,-13.0591,12.6582,
4.359521,0.0515,0.0313,1.0112,-1.6995,-1.8583,0.5812,-0.1969,0.1990,-0.0529,0.9750,-35.8500,-28.1438,188.2877,-13.0591,12.6582,
4.366886,0.0515,0.0313,1.0112,-1.5683,-1.7313,0.4600,-0.1969,0.1990,-0.0529,0.9750,-35.8500,-28.1438,188.2877,-13.0591,12.6582,
4.374240,0.0515,0.0313,1.0112,-1.5683,-1.7313,0.4600,-0.1969,0.1990,-0.0529,0.9750,-35.8500,-28.1438,187.7618,-12.3089,12.0454,
4.379542,0.0515,0.0313,1.0112,-1.5683,-1.7313,0.4600,-0.1782,0.1619,-0.0747,0.9750,-35.8500,-28.1438,187.7618,-12.3089,12.0454,
4.404749,0.0483,0.0317,1.0141,-1.5683,-1.7313,0.4600,-0.1782,0.1619,-0.0747,0.9750,-35.8500,-28.1438,187.7618,-12.3089,12.0454,
4.409553,0.0495,0.0330,0.9999,-1.5683,-1.7313,0.4600,-0.1782,0.1619,-0.0747,0.9750,-35.8500,-28.1438,187.7618,-12.3089,12.0454,
4.412895,0.0493,0.0325,1.0068,-1.5683,-1.7313,0.4600,-0.1782,0.1619,-0.0747,0.9750,-35.8500,-28.1438,187.7618,-12.3089,12.0454,
4.417419,0.0436,0.0352,1.0143,-1.5683,-1.7313,0.4600,-0.1782,0.1619,-0.0747,0.9750,-35.8500,-28.1438,187.7618,-12.3089,12.0454,
4.428850,0.0436,0.0352,1.0143,-1.5683,-1.7313,0.4600,-0.1782,0.1619,-0.0747,1.3313,-35.5500,-28.2188,187.7618,-12.3089,12.0454,
4.438870,0.0436,0.0352,1.0143,-1.5683,-1.7313,0.4600,-0.1619,0.1356,-0.0839,1.3313,-35.5500,-28.2188,187.7618,-12.3089,12.0454,
4.444224,0.0436,0.0352,1.0143,-1.4845,-1.5980,0.3048,-0.1619,0.1356,-0.0839,1.3313,-35.5500,-28.2188,187.7618,-12.3089,12.0454,
4.449470,0.0436,0.0352,1.0143,-1.4845,-1.5980,0.3048,-0.1619,0.1356,-0.0839,1.3313,-35.5500,-28.2188,187.3089,-11.6145,11.4310,
4.484581,0.0446,0.0347,1.0109,-1.4845,-1.5980,0.3048,-0.1619,0.1356,-0.0839,1.3313,-35.5500,-28.2188,187.3089,-11.6145,11.4310,
4.487975,0.0549,0.0347,1.0087,-1.4845,-1.5980,0.3048,-0.1619,0.1356,-0.0839,1.3313,-35.5500,-28.2188,187.3089,-11.6145,11.4310,
4.490201,0.0566,0.0342,0.9977,-1.4845,-1.5980,0.3048,-0.1619,0.1356,-0.0839,1.3313,-35.5500,-28.2188,187.3089,-11.6145,11.4310,
4.492368,0.0441,0.0356,1.0085,-1.4845,-1.5980,0.3048,-0.1619,0.1356,-0.0839,1.3313,-35.5500,-28.2188,187.3089,-11.6145,11.4310,
4.497022,0.0441,0.0356,1.0085,-1.4845,-1.5980,0.3048,-0.1619,0.1356,-0.0839,1.4250,-35.4750,-28.2563,187.3089,-11.6145,11.4310,
4.499513,0.0441,0.0356,1.0085,-1.4771,-1.5057,0.3977,-0.1619,0.1356,-0.0839,1.4250,-35.4750,-28.2563,187.3089,-11.6145,11.4310,
4.501785,0.0441,0.0356,1.0085,-1.4771,-1.5057,0.3977,-0.1619,0.1356,-0.0839,1.4250,-35.4750,-28.2563,186.9995,-11.0614,10.8740,
4.503985,0.0441,0.0356,1.0085,-1.4771,-1.5057,0.3977,-0.1461,0.1159,-0.0833,1.4250,-35.4750,-28.2563,186.9995,-11.0614,10.8740,
4.566417,0.0524,0.0369,1.0050,-1.4771,-1.5057,0.3977,-0.1461,0.1159,-0.0833,1.4250,-35.4750,-28.2563,186.9995,-11.0614,10.8740,
4.570140,0.0488,0.0339,1.0070,-1.4771,-1.5057,0.3977,-0.1461,0.1159,-0.0833,1.4250,-35.4750,-28.2563,186.9995,-11.0614,10.8740,
4.572363,0.0485,0.0332,1.0102,-1.4771,-1.5057,0.3977,-0.1461,0.1159,-0.0833,1.4250,-35.4750,-28.2563,186.9995,-11.0614,10.8740,
4.574480,0.0344,0.0317,1.0087,-1.4771,-1.5057,0.3977,-0.1461,0.1159,-0.0833,1.4250,-35.4750,-28.2563,186.9995,-11.0614,10.8740,
4.576675,0.0344,0.0317,1.0087,-1.4771,-1.5057,0.3977,-0.1303,0.1020,-0.0750,1.4250,-35.4750,-28.2563,186.9995,-11.0614,10.8740,
4.578827,0.0344,0.0317,1.0087,-1.4721,-1.4353,0.4085,-0.1303,0.1020,-0.0750,1.4250,-35.4750,-28.2563,186.9995,-11.0614,10.8740,
4.581224,0.0344,0.0317,1.0087,-1.4721,-1.4353,0.4085,-0.1303,0.1020,-0.0750,1.4250,-35.4750,-28.2563,186.7148,-10.4412,10.3031,
4.583730,0.0344,0.0317,1.0087,-1.4721,-1.4353,0.4085,-0.1303,0.1020,-0.0750,1.4813,-35.4188,-28.2375,186.7148,-10.4412,10.3031,
4.635040,0.0344,0.0317,1.0087,-1.4721,-1.4353,0.4085,-0.1153,0.0929,-0.0638,1.4813,-35.4188,-28.2375,186.7148,-10.4412,10.3031,
4.646904,0.0344,0.0317,1.0087,-1.3835,-1.3228,0.4181,-0.1153,0.0929,-0.0638,1.4813,-35.4188,-28.2375,186.7148,-10.4412,10.3031,
4.654616,0.0344,0.0317,1.0087,-1.3835,-1.3228,0.4181,-0.1153,0.0929,-0.0638,1.4813,-35.4188,-28.2375,186.4958,-9.8332,9.7779,
4.661331,0.0344,0.0317,1.0087,-1.3835,-1.3228,0.4181,-0.1153,0.0929,-0.0638,1.4062,-35.4938,-28.2000,186.4958,-9.8332,9.7779,
4.667547,0.0493,0.0335,1.0031,-1.3835,-1.3228,0.4181,-0.1153,0.0929,-0.0638,1.4062,-35.4938,-28.2000,186.4958,-9.8332,9.7779,
4.674061,0.0478,0.0344,1.0109,-1.3835,-1.3228,0.4181,-0.1153,0.0929,-0.0638,1.4062,-35.4938,-28.2000,186.4958,-9.8332,9.7779,
4.678743,0.0375,0.0347,1.0133,-1.3835,-1.3228,0.4181,-0.1153,0.0929,-0.0638,1.4062,-35.4938,-28.2000,186.4958,-9.8332,9.7779,
4.680676,0.0405,0.0327,1.0063,-1.3835,-1.3228,0.4181,-0.1153,0.0929,-0.0638,1.4062,-35.4938,-28.2000,186.4958,-9.8332,9.7779,
4.700495,0.0405,0.0327,1.0063,-1.3835,-1.3228,0.4181,-0.1026,0.0868,-0.0537,1.4062,-35.4938,-28.2000,186.4958,-9.8332,9.7779,
4.709149,0.0405,0.0327,1.0063,-1.2664,-1.2596,0.3844,-0.1026,0.0868,-0.0537,1.4062,-35.4938,-28.2000,186.4958,-9.8332,9.7779,
4.713091,0.0405,0.0327,1.0063,-1.2664,-1.2596,0.3844,-0.1026,0.0868,-0.0537,1.4062,-35.4938,-28.2000,186.3289,-9.2673,9.3109,
4.717574,0.0405,0.0327,1.0063,-1.2664,-1.2596,0.3844,-0.1026,0.0868,-0.0537,1.4250,-35.4750,-28.1625,186.3289,-9.2673,9.3109,
4.723034,0.0312,0.0364,1.0090,-1.2664,-1.2596,0.3844,-0.1026,0.0868,-0.0537,1.4250,-35.4750,-28.1625,186.3289,-9.2673,9.3109,
4.726995,0.0312,0.0310,1.0197,-1.2664,-1.2596,0.3844,-0.1026,0.0868,-0.0537,1.4250,-35.4750,-28.1625,186.3289,-9.2673,9.3109,
4.732377,0.0334,0.0305,1.0094,-1.2664,-1.2596,0.3844,-0.1026,0.0868,-0.0537,1.4250,-35.4750,-28.1625,186.3289,-9.2673,9.3109,
4.735532,0.0371,0.0295,1.0014,-1.2664,-1.2596,0.3844,-0.1026,0.0868,-0.0537,1.4250,-35.4750,-28.1625,186.3289,-9.2673,9.3109,
4.765739,0.0371,0.0295,1.0014,-1.1726,-1.1430,0.1611,-0.1026,0.0868,-0.0537,1.4250,-35.4750,-28.1625,186.3289,-9.2673,9.3109,
4.767981,0.0371,0.0295,1.0014,-1.1726,-1.1430,0.1611,-0.1026,0.0868,-0.0537,1.4250,-35.4750,-28.1625,186.2682,-8.7615,8.9825,
4.769296,0.0371,0.0295,1.0014,-1.1726,-1.1430,0.1611,-0.0925,0.0822,-0.0466,1.4250,-35.4750,-28.1625,186.2682,-8.7615,8.9825,
4.777646,0.0371,0.0295,1.0014,-1.1726,-1.1430,0.1611,-0.0925,0.0822,-0.0466,1.5375,-35.4750,-28.2000,186.2682,-8.7615,8.9825,
4.799065,0.0402,0.0300,1.0038,-1.1726,-1.1430,0.1611,-0.0925,0.0822,-0.0466,1.5375,-35.4750,-28.2000,186.2682,-8.7615,8.9825,
4.802042,0.0356,0.0339,0.9960,-1.1726,-1.1430,0.1611,-0.0925,0.0822,-0.0466,1.5375,-35.4750,-28.2000,186.2682,-8.7615,8.9825,
4.804173,0.0395,0.0293,1.0109,-1.1726,-1.1430,0.1611,-0.0925,0.0822,-0.0466,1.5375,-35.4750,-28.2000,186.2682,-8.7615,8.9825,
4.806231,0.0419,0.0288,1.0048,-1.1726,-1.1430,0.1611,-0.0925,0.0822,-0.0466,1.5375,-35.4750,-28.2000,186.2682,-8.7615,8.9825,
4.832347,0.0419,0.0288,1.0048,-1.1726,-1.1430,0.1611,-0.0845,0.0777,-0.0438,1.5375,-35.4750,-28.2000,186.2682,-8.7615,8.9825,
4.835481,0.0419,0.0288,1.0048,-1.1082,-1.1239,0.4835,-0.0845,0.0777,-0.0438,1.5375,-35.4750,-28.2000,186.2682,-8.7615,8.9825,
4.837966,0.0419,0.0288,1.0048,-1.1082,-1.1239,0.4835,-0.0845,0.0777,-0.0438,1.5375,-35.4750,-28.2000,186.1301,-8.0940,8.5735,
4.847971,0.0419,0.0288,1.0048,-1.1082,-1.1239,0.4835,-0.0845,0.0777,-0.0438,1.6125,-35.5312,-28.1625,186.1301,-8.0940,8.5735,
4.877377,0.0414,0.0293,1.0092,-1.1082,-1.1239,0.4835,-0.0845,0.0777,-0.0438,1.6125,-35.5312,-28.1625,186.1301,-8.0940,8.5735,
4.883303,0.0358,0.0251,1.0260,-1.1082,-1.1239,0.4835,-0.0845,0.0777,-0.0438,1.6125,-35.5312,-28.1625,186.1301,-8.0940,8.5735,
4.891512,0.0349,0.0259,1.0158,-1.1082,-1.1239,0.4835,-0.0845,0.0777,-0.0438,1.6125,-35.5312,-28.1625,186.1301,-8.0940,8.5735,
4.898469,0.0356,0.0261,1.0116,-1.1082,-1.1239,0.4835,-0.0845,0.0777,-0.0438,1.6125,-35.5312,-28.1625,186.1301,-8.0940,8.5735,
4.906519,0.0356,0.0261,1.0116,-0.9983,-0.9995,0.2869,-0.0845,0.0777,-0.0438,1.6125,-35.5312,-28.1625,186.1301,-8.0940,8.5735,
4.913008,0.0356,0.0261,1.0116,-0.9983,-0.9995,0.2869,-0.0845,0.0777,-0.0438,1.6125,-35.5312,-28.1625,185.9363,-7.4272,8.0093,
4.918083,0.0356,0.0261,1.0116,-0.9983,-0.9995,0.2869,-0.0782,0.0727,-0.0469,1.6125,-35.5312,-28.1625,185.9363,-7.4272,8.0093,
4.919963,0.0356,0.0261,1.0116,-0.9983,-0.9995,0.2869,-0.0782,0.0727,-0.0469,1.6875,-35.5312,-28.2750,185.9363,-7.4272,8.0093,
4.957574,0.0422,0.0251,1.0046,-0.9983,-0.9995,0.2869,-0.0782,0.0727,-0.0469,1.6875,-35.5312,-28.2750,185.9363,-7.4272,8.0093,
4.971697,0.0358,0.0273,1.0075,-0.9983,-0.9995,0.2869,-0.0782,0.0727,-0.0469,1.6875,-35.5312,-28.2750,185.9363,-7.4272,8.0093,
4.980570,0.0327,0.0276,1.0168,-0.9983,-0.9995,0.2869,-0.0782,0.0727,-0.0469,1.6875,-35.5312,-28.2750,185.9363,-7.4272,8.0093,
4.987316,0.0351,0.0269,1.0068,-0.9983,-0.9995,0.2869,-0.0782,0.0727,-0.0469,1.6875,-35.5312,-28.2750,185.9363,-7.4272,8.0093,
4.995311,0.0351,0.0269,1.0068,-0.9983,-0.9995,0.2869,-0.0736,0.0669,-0.0543,1.6875,-35.5312,-28.2750,185.9363,-7.4272,8.0093,
4.999257,0.0351,0.0269,1.0068,-0.9983,-0.9995,0.2869,-0.0736,0.0669,-0.0543,1.6875,-35.5312,-28.2750,185.8638,-6.8508,7.5064,
5.001069,0.0351,0.0269,1.0068,-0.8364,-0.9039,0.0238,-0.0736,0.0669,-0.0543,1.6875,-35.5312,-28.2750,185.8638,-6.8508,7.5064,
5.002811,0.0351,0.0269,1.0068,-0.8364,-0.9039,0.0238,-0.0736,0.0669,-0.0543,1.7438,-35.5875,-28.3875,185.8638,-6.8508,7.5064,
5.033296,0.0351,0.0269,1.0068,-0.8364,-0.9039,0.0238,-0.0698,0.0607,-0.0613,1.7438,-35.5875,-28.3875,185.8638,-6.8508,7.5064,
5.044523,0.0351,0.0269,1.0068,-0.8364,-0.9039,0.0238,-0.0698,0.0607,-0.0613,1.7438,-35.5875,-28.3875,185.8240,-6.2825,6.9876,
5.052882,0.0351,0.0269,1.0068,-0.7483,-0.8094,0.0016,-0.0698,0.0607,-0.0613,1.7438,-35.5875,-28.3875,185.8240,-6.2825,6.9876,
5.062146,0.0441,0.0261,0.9945,-0.7483,-0.8094,0.0016,-0.0698,0.0607,-0.0613,1.7438,-35.5875,-28.3875,185.8240,-6.2825,6.9876,
5.067175,0.0358,0.0259,1.0131,-0.7483,-0.8094,0.0016,-0.0698,0.0607,-0.0613,1.7438,-35.5875,-28.3875,185.8240,-6.2825,6.9876,
5.077616,0.0329,0.0254,1.0121,-0.7483,-0.8094,0.0016,-0.0698,0.0607,-0.0613,1.7438,-35.5875,-28.3875,185.8240,-6.2825,6.9876,
5.079709,0.0331,0.0239,1.0053,-0.7483,-0.8094,0.0016,-0.0698,0.0607,-0.0613,1.7438,-35.5875,-28.3875,185.8240,-6.2825,6.9876,
5.081549,0.0331,0.0239,1.0053,-0.7483,-0.8094,0.0016,-0.0698,0.0607,-0.0613,1.8000,-35.6625,-28.3688,185.8240,-6.2825,6.9876,
5.099941,0.0331,0.0239,1.0053,-0.7483,-0.8094,0.0016,-0.0658,0.0552,-0.0618,1.8000,-35.6625,-28.3688,185.8240,-6.2825,6.9876,
5.108748,0.0331,0.0239,1.0053,-0.7561,-0.7334,0.1386,-0.0658,0.0552,-0.0618,1.8000,-35.6625,-28.3688,185.8240,-6.2825,6.9876,
5.115691,0.0331,0.0239,1.0053,-0.7561,-0.7334,0.1386,-0.0658,0.0552,-0.0618,1.8000,-35.6625,-28.3688,185.8104,-5.7408,6.4138,
5.118959,0.0341,0.0251,1.0102,-0.7561,-0.7334,0.1386,-0.0658,0.0552,-0.0618,1.8000,-35.6625,-28.3688,185.8104,-5.7408,6.4138,
5.120675,0.0283,0.0237,1.0146,-0.7561,-0.7334,0.1386,-0.0658,0.0552,-0.0618,1.8000,-35.6625,-28.3688,185.8104,-5.7408,6.4138,
5.122325,0.0256,0.0215,1.0177,-0.7561,-0.7334,0.1386,-0.0658,0.0552,-0.0618,1.8000,-35.6625,-28.3688,185.8104,-5.7408,6.4138,
5.124075,0.0283,0.0232,1.0141,-0.7561,-0.7334,0.1386,-0.0658,0.0552,-0.0618,1.8000,-35.6625,-28.3688,185.8104,-5.7408,6.4138,
5.128882,0.0283,0.0232,1.0141,-0.7561,-0.7334,0.1386,-0.0658,0.0552,-0.0618,1.9125,-35.6625,-28.4625,185.8104,-5.7408,6.4138,
5.166766,0.0283,0.0232,1.0141,-0.7561,-0.7334,0.1386,-0.0612,0.0515,-0.0525,1.9125,-35.6625,-28.4625,185.8104,-5.7408,6.4138,
5.178328,0.0283,0.0232,1.0141,-0.6879,-0.6599,0.2092,-0.0612,0.0515,-0.0525,1.9125,-35.6625,-28.4625,185.8104,-5.7408,6.4138,
5.187104,0.0283,0.0232,1.0141,-0.6879,-0.6599,0.2092,-0.0612,0.0515,-0.0525,1.9125,-35.6625,-28.4625,185.8086,-5.2159,5.7598,
5.195995,0.0309,0.0247,1.0126,-0.6879,-0.6599,0.2092,-0.0612,0.0515,-0.0525,1.9125,-35.6625,-28.4625,185.8086,-5.2159,5.7598,
5.201079,0.0266,0.0222,1.0070,-0.6879,-0.6599,0.2092,-0.0612,0.0515,-0.0525,1.9125,-35.6625,-28.4625,185.8086,-5.2159,5.7598,
5.209387,0.0285,0.0220,1.0094,-0.6879,-0.6599,0.2092,-0.0612,0.0515,-0.0525,1.9125,-35.6625,-28.4625,185.8086,-5.2159,5.7598,
5.214436,0.0285,0.0220,1.0094,-0.6879,-0.6599,0.2092,-0.0612,0.0515,-0.0525,1.9313,-35.6438,-28.5938,185.8086,-5.2159,5.7598,
5.233092,0.0285,0.0220,1.0094,-0.6879,-0.6599,0.2092,-0.0612,0.0515,-0.0525,1.9313,-35.6438,-28.5938,185.8860,-4.7631,5.1729,
5.235876,0.0285,0.0220,1.0094,-0.5688,-0.5983,0.1212,-0.0612,0.0515,-0.0525,1.9313,-35.6438,-28.5938,185.8860,-4.7631,5.1729,
5.237991,0.0285,0.0220,1.0094,-0.5688,-0.5983,0.1212,-0.0564,0.0500,-0.0360,1.9313,-35.6438,-28.5938,185.8860,-4.7631,5.1729,
5.250985,0.0312,0.0230,0.9972,-0.5688,-0.5983,0.1212,-0.0564,0.0500,-0.0360,1.9313,-35.6438,-28.5938,185.8860,-4.7631,5.1729,
5.256955,0.0288,0.0230,1.0058,-0.5688,-0.5983,0.1212,-0.0564,0.0500,-0.0360,1.9313,-35.6438,-28.5938,185.8860,-4.7631,5.1729,
5.261435,0.0270,0.0217,1.0085,-0.5688,-0.5983,0.1212,-0.0564,0.0500,-0.0360,1.9313,-35.6438,-28.5938,185.8860,-4.7631,5.1729,
5.264677,0.0268,0.0232,1.0107,-0.5688,-0.5983,0.1212,-0.0564,0.0500,-0.0360,1.9313,-35.6438,-28.5938,185.8860,-4.7631,5.1729,
5.271275,0.0268,0.0232,1.0107,-0.5688,-0.5983,0.1212,-0.0564,0.0500,-0.0360,1.9125,-35.6250,-28.6125,185.8860,-4.7631,5.1729,
5.299973,0.0268,0.0232,1.0107,-0.5551,-0.5353,0.1627,-0.0564,0.0500,-0.0360,1.9125,-35.6250,-28.6125,185.8860,-4.7631,5.1729,
5.309888,0.0268,0.0232,1.0107,-0.5551,-0.5353,0.1627,-0.0521,0.0495,-0.0192,1.9125,-35.6250,-28.6125,185.8860,-4.7631,5.1729,
5.314648,0.0268,0.0232,1.0107,-0.5551,-0.5353,0.1627,-0.0521,0.0495,-0.0192,1.9125,-35.6250,-28.6125,186.1096,-4.3619,4.7842,
5.331050,0.0266,0.0234,1.0146,-0.5551,-0.5353,0.1627,-0.0521,0.0495,-0.0192,1.9125,-35.6250,-28.6125,186.1096,-4.3619,4.7842,
5.341341,0.0275,0.0237,1.0107,-0.5551,-0.5353,0.1627,-0.0521,0.0495,-0.0192,1.9125,-35.6250,-28.6125,186.1096,-4.3619,4.7842,
5.346013,0.0285,0.0225,1.0138,-0.5551,-0.5353,0.1627,-0.0521,0.0495,-0.0192,1.9125,-35.6250,-28.6125,186.1096,-4.3619,4.7842,
5.349858,0.0322,0.0251,1.0082,-0.5551,-0.5353,0.1627,-0.0521,0.0495,-0.0192,1.9125,-35.6250,-28.6125,186.1096,-4.3619,4.7842,
5.356427,0.0322,0.0251,1.0082,-0.5551,-0.5353,0.1627,-0.0521,0.0495,-0.0192,1.9500,-35.7000,-28.6125,186.1096,-4.3619,4.7842,
5.366301,0.0322,0.0251,1.0082,-0.5551,-0.5353,0.1627,-0.0479,0.0487,-0.0086,1.9500,-35.7000,-28.6125,186.1096,-4.3619,4.7842,
5.368816,0.0322,0.0251,1.0082,-0.4680,-0.4586,0.1766,-0.0479,0.0487,-0.0086,1.9500,-35.7000,-28.6125,186.1096,-4.3619,4.7842,
5.370148,0.0322,0.0251,1.0082,-0.4680,-0.4586,0.1766,-0.0479,0.0487,-0.0086,1.9500,-35.7000,-28.6125,186.3239,-3.9929,4.3859,
5.408688,0.0312,0.0281,1.0085,-0.4680,-0.4586,0.1766,-0.0479,0.0487,-0.0086,1.9500,-35.7000,-28.6125,186.3239,-3.9929,4.3859,
5.418247,0.0302,0.0305,1.0092,-0.4680,-0.4586,0.1766,-0.0479,0.0487,-0.0086,1.9500,-35.7000,-28.6125,186.3239,-3.9929,4.3859,
5.427327,0.0322,0.0256,1.0136,-0.4680,-0.4586,0.1766,-0.0479,0.0487,-0.0086,1.9500,-35.7000,-28.6125,186.3239,-3.9929,4.3859,
5.436875,0.0314,0.0288,1.0107,-0.4680,-0.4586,0.1766,-0.0479,0.0487,-0.0086,1.9500,-35.7000,-28.6125,186.3239,-3.9929,4.3859,
5.444713,0.0314,0.0288,1.0107,-0.4680,-0.4586,0.1766,-0.0479,0.0487,-0.0086,1.8938,-35.7563,-28.7063,186.3239,-3.9929,4.3859,
5.452014,0.0314,0.0288,1.0107,-0.4680,-0.4586,0.1766,-0.0432,0.0465,-0.0060,1.8938,-35.7563,-28.7063,186.3239,-3.9929,4.3859,
5.458700,0.0314,0.0288,1.0107,-0.4680,-0.4586,0.1766,-0.0432,0.0465,-0.0060,1.8938,-35.7563,-28.7063,186.5457,-3.6007,4.0115,
5.460585,0.0314,0.0288,1.0107,-0.3754,-0.3682,0.1722,-0.0432,0.0465,-0.0060,1.8938,-35.7563,-28.7063,186.5457,-3.6007,4.0115,
5.477884,0.0314,0.0288,1.0107,-0.3754,-0.3682,0.1722,-0.0432,0.0465,-0.0060,1.8750,-35.7938,-28.5938,186.5457,-3.6007,4.0115,
5.486178,0.0317,0.0283,1.0097,-0.3754,-0.3682,0.1722,-0.0432,0.0465,-0.0060,1.8750,-35.7938,-28.5938,186.5457,-3.6007,4.0115,
5.494109,0.0334,0.0313,1.0102,-0.3754,-0.3682,0.1722,-0.0432,0.0465,-0.0060,1.8750,-35.7938,-28.5938,186.5457,-3.6007,4.0115,
5.497370,0.0361,0.0322,1.0087,-0.3754,-0.3682,0.1722,-0.0432,0.0465,-0.0060,1.8750,-35.7938,-28.5938,186.5457,-3.6007,4.0115,
5.498778,0.0380,0.0349,1.0055,-0.3754,-0.3682,0.1722,-0.0432,0.0465,-0.0060,1.8750,-35.7938,-28.5938,186.5457,-3.6007,4.0115,
5.500520,0.0380,0.0349,1.0055,-0.3754,-0.3682,0.1722,-0.0377,0.0423,-0.0083,1.8750,-35.7938,-28.5938,186.5457,-3.6007,4.0115,
5.501821,0.0380,0.0349,1.0055,-0.2888,-0.2381,0.1260,-0.0377,0.0423,-0.0083,1.8750,-35.7938,-28.5938,186.5457,-3.6007,4.0115,
5.503128,0.0380,0.0349,1.0055,-0.2888,-0.2381,0.1260,-0.0377,0.0423,-0.0083,1.8750,-35.7938,-28.5938,186.7504,-3.2297,3.6448,
5.547829,0.0380,0.0349,1.0055,-0.2888,-0.2381,0.1260,-0.0377,0.0423,-0.0083,1.8375,-35.7750,-28.4813,186.7504,-3.2297,3.6448,
5.565087,0.0358,0.0339,1.0102,-0.2888,-0.2381,0.1260,-0.0377,0.0423,-0.0083,1.8375,-35.7750,-28.4813,186.7504,-3.2297,3.6448,
5.567961,0.0373,0.0310,1.0090,-0.2888,-0.2381,0.1260,-0.0377,0.0423,-0.0083,1.8375,-35.7750,-28.4813,186.7504,-3.2297,3.6448,
5.570139,0.0388,0.0332,1.0114,-0.2888,-0.2381,0.1260,-0.0377,0.0423,-0.0083,1.8375,-35.7750,-28.4813,186.7504,-3.2297,3.6448,
5.572300,0.0405,0.0342,1.0077,-0.2888,-0.2381,0.1260,-0.0377,0.0423,-0.0083,1.8375,-35.7750,-28.4813,186.7504,-3.2297,3.6448,
5.574394,0.0405,0.0342,1.0077,-0.2888,-0.2381,0.1260,-0.0314,0.0368,-0.0096,1.8375,-35.7750,-28.4813,186.7504,-3.2297,3.6448,
5.576739,0.0405,0.0342,1.0077,-0.1889,-0.1866,0.0993,-0.0314,0.0368,-0.0096,1.8375,-35.7750,-28.4813,186.7504,-3.2297,3.6448,
5.578926,0.0405,0.0342,1.0077,-0.1889,-0.1866,0.0993,-0.0314,0.0368,-0.0096,1.8375,-35.7750,-28.4813,186.8988,-2.8422,3.2563,
5.617260,0.0405,0.0342,1.0077,-0.1889,-0.1866,0.0993,-0.0314,0.0368,-0.0096,1.6875,-35.7375,-28.5000,186.8988,-2.8422,3.2563,
5.634145,0.0405,0.0342,1.0077,-0.1889,-0.1866,0.0993,-0.0247,0.0306,-0.0049,1.6875,-35.7375,-28.5000,186.8988,-2.8422,3.2563,
5.642292,0.0405,0.0342,1.0077,-0.0764,-0.1244,0.0984,-0.0247,0.0306,-0.0049,1.6875,-35.7375,-28.5000,186.8988,-2.8422,3.2563,
5.650016,0.0405,0.0342,1.0077,-0.0764,-0.1244,0.0984,-0.0247,0.0306,-0.0049,1.6875,-35.7375,-28.5000,187.0250,-2.5893,2.8501,
5.657151,0.0419,0.0335,1.0085,-0.0764,-0.1244,0.0984,-0.0247,0.0306,-0.0049,1.6875,-35.7375,-28.5000,187.0250,-2.5893,2.8501,
5.662265,0.0436,0.0337,1.0087,-0.0764,-0.1244,0.0984,-0.0247,0.0306,-0.0049,1.6875,-35.7375,-28.5000,187.0250,-2.5893,2.8501,
5.667363,0.0454,0.0354,1.0082,-0.0764,-0.1244,0.0984,-0.0247,0.0306,-0.0049,1.6875,-35.7375,-28.5000,187.0250,-2.5893,2.8501,
5.677058,0.0444,0.0337,1.0087,-0.0764,-0.1244,0.0984,-0.0247,0.0306,-0.0049,1.6875,-35.7375,-28.5000,187.0250,-2.5893,2.8501,
5.687371,0.0444,0.0337,1.0087,-0.0764,-0.1244,0.0984,-0.0247,0.0306,-0.0049,1.5563,-35.7750,-28.4250,187.0250,-2.5893,2.8501,
5.699535,0.0444,0.0337,1.0087,-0.0764,-0.1244,0.0984,-0.0185,0.0242,0.0047,1.5563,-35.7750,-28.4250,187.0250,-2.5893,2.8501,
5.707423,0.0444,0.0337,1.0087,0.0342,-0.0559,0.0786,-0.0185,0.0242,0.0047,1.5563,-35.7750,-28.4250,187.0250,-2.5893,2.8501,
5.713818,0.0444,0.0337,1.0087,0.0342,-0.0559,0.0786,-0.0185,0.0242,0.0047,1.5563,-35.7750,-28.4250,187.1004,-2.2994,2.4273,
5.723993,0.0468,0.0342,1.0090,0.0342,-0.0559,0.0786,-0.0185,0.0242,0.0047,1.5563,-35.7750,-28.4250,187.1004,-2.2994,2.4273,
5.731714,0.0507,0.0366,1.0070,0.0342,-0.0559,0.0786,-0.0185,0.0242,0.0047,1.5563,-35.7750,-28.4250,187.1004,-2.2994,2.4273,
5.738490,0.0510,0.0359,1.0070,0.0342,-0.0559,0.0786,-0.0185,0.0242,0.0047,1.5563,-35.7750,-28.4250,187.1004,-2.2994,2.4273,
5.740327,0.0529,0.0374,1.0085,0.0342,-0.0559,0.0786,-0.0185,0.0242,0.0047,1.5563,-35.7750,-28.4250,187.1004,-2.2994,2.4273,
5.757608,0.0529,0.0374,1.0085,0.0342,-0.0559,0.0786,-0.0185,0.0242,0.0047,1.5563,-35.7563,-28.3313,187.1004,-2.2994,2.4273,
5.766536,0.0529,0.0374,1.0085,0.0342,-0.0559,0.0786,-0.0136,0.0173,0.0119,1.5563,-35.7563,-28.3313,187.1004,-2.2994,2.4273,
5.775173,0.0529,0.0374,1.0085,0.1710,0.0217,0.0939,-0.0136,0.0173,0.0119,1.5563,-35.7563,-28.3313,187.1004,-2.2994,2.4273,
5.779429,0.0529,0.0374,1.0085,0.1710,0.0217,0.0939,-0.0136,0.0173,0.0119,1.5563,-35.7563,-28.3313,187.1004,-2.2994,2.4273,
5.801551,0.0569,0.0381,1.0072,0.1710,0.0217,0.0939,-0.0136,0.0173,0.0119,1.5563,-35.7563,-28.3313,187.1004,-2.2994,2.4273,
5.812134,0.0552,0.0391,1.0121,0.1710,0.0217,0.0939,-0.0136,0.0173,0.0119,1.5563,-35.7563,-28.3313,187.1004,-2.2994,2.4273,
5.820313,0.0588,0.0425,1.0092,0.1710,0.0217,0.0939,-0.0136,0.0173,0.0119,1.5563,-35.7563,-28.3313,187.1004,-2.2994,2.4273,
5.827718,0.0625,0.0422,1.0036,0.1710,0.0217,0.0939,-0.0136,0.0173,0.0119,1.5563,-35.7563,-28.3313,187.1004,-2.2994,2.4273,
5.836562,0.0625,0.0422,1.0036,0.1710,0.0217,0.0939,-0.0136,0.0173,0.0119,1.5000,-35.8313,-28.2938,187.1004,-2.2994,2.4273,
5.838607,0.0625,0.0422,1.0036,0.1710,0.0217,0.0939,-0.0087,0.0103,0.0102,1.5000,-35.8313,-28.2938,187.1004,-2.2994,2.4273,
5.840033,0.0625,0.0422,1.0036,0.2831,0.0936,0.0627,-0.0087,0.0103,0.0102,1.5000,-35.8313,-28.2938,187.1004,-2.2994,2.4273,
5.841350,0.0625,0.0422,1.0036,0.2831,0.0936,0.0627,-0.0087,0.0103,0.0102,1.5000,-35.8313,-28.2938,187.3776,-1.8721,1.8679,
5.881415,0.0618,0.0430,1.0085,0.2831,0.0936,0.0627,-0.0087,0.0103,0.0102,1.5000,-35.8313,-28.2938,187.3776,-1.8721,1.8679,
5.894425,0.0645,0.0449,1.0082,0.2831,0.0936,0.0627,-0.0087,0.0103,0.0102,1.5000,-35.8313,-28.2938,187.3776,-1.8721,1.8679,
5.906641,0.0679,0.0432,1.0033,0.2831,0.0936,0.0627,-0.0087,0.0103,0.0102,1.5000,-35.8313,-28.2938,187.3776,-1.8721,1.8679,
5.917087,0.0725,0.0491,0.9955,0.2831,0.0936,0.0627,-0.0087,0.0103,0.0102,1.5000,-35.8313,-28.2938,187.3776,-1.8721,1.8679,
5.926163,0.0725,0.0491,0.9955,0.2831,0.0936,0.0627,-0.0087,0.0103,0.0102,1.2938,-35.7750,-28.1813,187.3776,-1.8721,1.8679,
5.931609,0.0725,0.0491,0.9955,0.2831,0.0936,0.0627,-0.0052,0.0025,-0.0004,1.2938,-35.7750,-28.1813,187.3776,-1.8721,1.8679,
5.937344,0.0725,0.0491,0.9955,0.3612,0.1104,0.0475,-0.0052,0.0025,-0.0004,1.2938,-35.7750,-28.1813,187.3776,-1.8721,1.8679,
5.939353,0.0725,0.0491,0.9955,0.3612,0.1104,0.0475,-0.0052,0.0025,-0.0004,1.2938,-35.7750,-28.1813,187.3776,-1.8721,1.8679,
5.958141,0.0772,0.0418,0.9987,0.3612,0.1104,0.0475,-0.0052,0.0025,-0.0004,1.2938,-35.7750,-28.1813,187.3776,-1.8721,1.8679,
5.960899,0.0706,0.0447,1.0065,0.3612,0.1104,0.0475,-0.0052,0.0025,-0.0004,1.2938,-35.7750,-28.1813,187.3776,-1.8721,1.8679,
5.962800,0.0662,0.0623,1.0580,0.3612,0.1104,0.0475,-0.0052,0.0025,-0.0004,1.2938,-35.7750,-28.1813,187.3776,-1.8721,1.8679,
5.965367,0.0652,0.0706,0.9777,0.3612,0.1104,0.0475,-0.0052,0.0025,-0.0004,1.2938,-35.7750,-28.1813,187.3776,-1.8721,1.8679,
5.967073,0.0652,0.0706,0.9777,0.3612,0.1104,0.0475,-0.0031,-0.0060,-0.0131,1.2938,-35.7750,-28.1813,187.3776,-1.8721,1.8679,
5.968849,0.0652,0.0706,0.9777,-1.7328,1.4593,0.2581,-0.0031,-0.0060,-0.0131,1.2938,-35.7750,-28.1813,187.3776,-1.8721,1.8679,
5.970598,0.0652,0.0706,0.9777,-1.7328,1.4593,0.2581,-0.0031,-0.0060,-0.0131,1.2938,-35.7750,-28.1813,187.3776,-1.8721,1.8679,
5.972298,0.0652,0.0706,0.9777,-1.7328,1.4593,0.2581,-0.0031,-0.0060,-0.0131,1.2000,-35.7000,-28.0875,187.3776,-1.8721,1.8679,
6.032082,0.0652,0.0706,0.9777,-1.7328,1.4593,0.2581,0.0001,-0.0104,-0.0180,1.2000,-35.7000,-28.0875,187.3776,-1.8721,1.8679,
6.035351,0.0652,0.0706,0.9777,-0.2606,1.3874,-3.0408,0.0001,-0.0104,-0.0180,1.2000,-35.7000,-28.0875,187.3776,-1.8721,1.8679,
6.037696,0.0652,0.0706,0.9777,-0.2606,1.3874,-3.0408,0.0001,-0.0104,-0.0180,1.2000,-35.7000,-28.0875,187.3776,-1.8721,1.8679,
6.039727,0.0652,0.0706,0.9777,-0.2606,1.3874,-3.0408,0.0001,-0.0104,-0.0180,1.0500,-35.3813,-28.3688,187.3776,-1.8721,1.8679,
6.063992,0.0859,0.0082,1.0041,-0.2606,1.3874,-3.0408,0.0001,-0.0104,-0.0180,1.0500,-35.3813,-28.3688,187.3776,-1.8721,1.8679,
6.067687,0.0767,0.1118,0.7586,-0.2606,1.3874,-3.0408,0.0001,-0.0104,-0.0180,1.0500,-35.3813,-28.3688,187.3776,-1.8721,1.8679,
6.070589,-0.0386,0.1807,0.8367,-0.2606,1.3874,-3.0408,0.0001,-0.0104,-0.0180,1.0500,-35.3813,-28.3688,187.3776,-1.8721,1.8679,
6.073809,0.0104,-0.1046,1.0456,-0.2606,1.3874,-3.0408,0.0001,-0.0104,-0.0180,1.0500,-35.3813,-28.3688,187.3776,-1.8721,1.8679,
6.099663,0.0104,-0.1046,1.0456,-0.2606,1.3874,-3.0408,0.0015,-0.0081,-0.0133,1.0500,-35.3813,-28.3688,187.3776,-1.8721,1.8679,
6.101903,0.0104,-0.1046,1.0456,3.7854,-7.9961,-3.8841,0.0015,-0.0081,-0.0133,1.0500,-35.3813,-28.3688,187.3776,-1.8721,1.8679,
6.103208,0.0104,-0.1046,1.0456,3.7854,-7.9961,-3.8841,0.0015,-0.0081,-0.0133,1.0500,-35.3813,-28.3688,188.3540,-1.3527,2.0802,
6.106858,0.0104,-0.1046,1.0456,3.7854,-7.9961,-3.8841,0.0015,-0.0081,-0.0133,0.7875,-33.7125,-29.7750,188.3540,-1.3527,2.0802,
6.115063,0.2440,-0.4850,0.7610,3.7854,-7.9961,-3.8841,0.0015,-0.0081,-0.0133,0.7875,-33.7125,-29.7750,188.3540,-1.3527,2.0802,
6.122302,0.4614,-0.8366,0.5345,3.7854,-7.9961,-3.8841,0.0015,-0.0081,-0.0133,0.7875,-33.7125,-29.7750,188.3540,-1.3527,2.0802,
6.134741,0.3681,-1.0254,0.7390,3.7854,-7.9961,-3.8841,0.0015,-0.0081,-0.0133,0.7875,-33.7125,-29.7750,188.3540,-1.3527,2.0802,
6.145124,0.1028,-1.0479,2.3693,3.7854,-7.9961,-3.8841,0.0015,-0.0081,-0.0133,0.7875,-33.7125,-29.7750,188.3540,-1.3527,2.0802,
6.164888,0.1028,-1.0479,2.3693,3.7854,-7.9961,-3.8841,-0.0096,-0.0107,-0.0153,0.7875,-33.7125,-29.7750,188.3540,-1.3527,2.0802,
6.167200,0.1028,-1.0479,2.3693,3.7854,-7.9961,-3.8841,-0.0096,-0.0107,-0.0153,0.7875,-33.7125,-29.7750,188.6499,-0.9787,2.3279,
6.168744,0.1028,-1.0479,2.3693,-1.7828,-6.4285,29.5679,-0.0096,-0.0107,-0.0153,0.7875,-33.7125,-29.7750,188.6499,-0.9787,2.3279,
6.177645,0.1028,-1.0479,2.3693,-1.7828,-6.4285,29.5679,-0.0096,-0.0107,-0.0153,1.6500,-29.5688,-32.1000,188.6499,-0.9787,2.3279,
6.192630,-0.1085,-0.8456,3.8148,-1.7828,-6.4285,29.5679,-0.0096,-0.0107,-0.0153,1.6500,-29.5688,-32.1000,188.6499,-0.9787,2.3279,
6.194741,-0.1454,-0.3680,3.0645,-1.7828,-6.4285,29.5679,-0.0096,-0.0107,-0.0153,1.6500,-29.5688,-32.1000,188.6499,-0.9787,2.3279,
6.195958,0.4925,0.0107,2.4702,-1.7828,-6.4285,29.5679,-0.0096,-0.0107,-0.0153,1.6500,-29.5688,-32.1000,188.6499,-0.9787,2.3279,
6.196930,0.8394,0.3141,1.8054,-1.7828,-6.4285,29.5679,-0.0096,-0.0107,-0.0153,1.6500,-29.5688,-32.1000,188.6499,-0.9787,2.3279,
6.232090,0.8394,0.3141,1.8054,-1.7828,-6.4285,29.5679,-0.0403,-0.0421,-0.0612,1.6500,-29.5688,-32.1000,188.6499,-0.9787,2.3279,
6.234729,0.8394,0.3141,1.8054,5.2194,4.9585,3.5724,-0.0403,-0.0421,-0.0612,1.6500,-29.5688,-32.1000,188.6499,-0.9787,2.3279,
6.236682,0.8394,0.3141,1.8054,5.2194,4.9585,3.5724,-0.0403,-0.0421,-0.0612,1.6500,-29.5688,-32.1000,188.6499,-0.9787,2.3279,
6.247593,0.8394,0.3141,1.8054,5.2194,4.9585,3.5724,-0.0403,-0.0421,-0.0612,2.4750,-24.6750,-34.4438,188.6499,-0.9787,2.3279,
6.272390,0.3950,0.5663,1.3358,5.2194,4.9585,3.5724,-0.0403,-0.0421,-0.0612,2.4750,-24.6750,-34.4438,188.6499,-0.9787,2.3279,
6.275667,-0.2568,0.7116,1.3578,5.2194,4.9585,3.5724,-0.0403,-0.0421,-0.0612,2.4750,-24.6750,-34.4438,188.6499,-0.9787,2.3279,
6.278098,-0.4493,0.7573,1.2318,5.2194,4.9585,3.5724,-0.0403,-0.0421,-0.0612,2.4750,-24.6750,-34.4438,188.6499,-0.9787,2.3279,
6.280348,-0.5131,0.7221,0.8814,5.2194,4.9585,3.5724,-0.0403,-0.0421,-0.0612,2.4750,-24.6750,-34.4438,188.6499,-0.9787,2.3279,
6.299423,-0.5131,0.7221,0.8814,-5.1763,6.9513,-2.1166,-0.0403,-0.0421,-0.0612,2.4750,-24.6750,-34.4438,188.6499,-0.9787,2.3279,
6.302502,-0.5131,0.7221,0.8814,-5.1763,6.9513,-2.1166,-0.0403,-0.0421,-0.0612,2.4750,-24.6750,-34.4438,188.6499,-0.9787,2.3279,
6.304606,-0.5131,0.7221,0.8814,-5.1763,6.9513,-2.1166,-0.0434,-0.0817,-0.1673,2.4750,-24.6750,-34.4438,188.6499,-0.9787,2.3279,
6.318419,-0.5131,0.7221,0.8814,-5.1763,6.9513,-2.1166,-0.0434,-0.0817,-0.1673,2.8875,-20.2313,-36.7500,188.6499,-0.9787,2.3279,
6.351447,-0.3409,0.6359,0.7720,-5.1763,6.9513,-2.1166,-0.0434,-0.0817,-0.1673,2.8875,-20.2313,-36.7500,188.6499,-0.9787,2.3279,
6.361317,-0.2766,0.5651,0.8328,-5.1763,6.9513,-2.1166,-0.0434,-0.0817,-0.1673,2.8875,-20.2313,-36.7500,188.6499,-0.9787,2.3279,
6.368510,-0.2556,0.4219,0.9098,-5.1763,6.9513,-2.1166,-0.0434,-0.0817,-0.1673,2.8875,-20.2313,-36.7500,188.6499,-0.9787,2.3279,
6.375050,-0.3230,0.2777,1.0378,-5.1763,6.9513,-2.1166,-0.0434,-0.0817,-0.1673,2.8875,-20.2313,-36.7500,188.6499,-0.9787,2.3279,
6.380240,-0.3230,0.2777,1.0378,-5.1763,6.9513,-2.1166,0.0506,-0.0610,-0.2988,2.8875,-20.2313,-36.7500,188.6499,-0.9787,2.3279,
6.386783,-0.3230,0.2777,1.0378,-3.2814,2.9349,0.3002,0.0506,-0.0610,-0.2988,2.8875,-20.2313,-36.7500,188.6499,-0.9787,2.3279,
6.392324,-0.3230,0.2777,1.0378,-3.2814,2.9349,0.3002,0.0506,-0.0610,-0.2988,2.8875,-20.2313,-36.7500,188.6499,-0.9787,2.3279,
6.397026,-0.3230,0.2777,1.0378,-3.2814,2.9349,0.3002,0.0506,-0.0610,-0.2988,3.2813,-16.7812,-38.9625,188.6499,-0.9787,2.3279,
6.432140,-0.3489,0.1094,1.0390,-3.2814,2.9349,0.3002,0.0506,-0.0610,-0.2988,3.2813,-16.7812,-38.9625,188.6499,-0.9787,2.3279,
6.442197,-0.2820,-0.0284,1.1150,-3.2814,2.9349,0.3002,0.0506,-0.0610,-0.2988,3.2813,-16.7812,-38.9625,188.6499,-0.9787,2.3279,
6.450914,-0.3111,-0.1940,1.2432,-3.2814,2.9349,0.3002,0.0506,-0.0610,-0.2988,3.2813,-16.7812,-38.9625,188.6499,-0.9787,2.3279,
6.460104,-0.3023,-0.3833,1.2921,-3.2814,2.9349,0.3002,0.0506,-0.0610,-0.2988,3.2813,-16.7812,-38.9625,188.6499,-0.9787,2.3279,
6.465550,-0.3023,-0.3833,1.2921,-3.4155,-2.6499,2.6735,0.0506,-0.0610,-0.2988,3.2813,-16.7812,-38.9625,188.6499,-0.9787,2.3279,
6.470729,-0.3023,-0.3833,1.2921,-3.4155,-2.6499,2.6735,0.2094,0.0456,-0.3865,3.2813,-16.7812,-38.9625,188.6499,-0.9787,2.3279,
6.475280,-0.3023,-0.3833,1.2921,-3.4155,-2.6499,2.6735,0.2094,0.0456,-0.3865,3.2813,-16.7812,-38.9625,189.9277,-0.7228,1.9911,
6.479564,-0.3023,-0.3833,1.2921,-3.4155,-2.6499,2.6735,0.2094,0.0456,-0.3865,3.9000,-15.1125,-40.6875,189.9277,-0.7228,1.9911,
6.500202,-0.3023,-0.3833,1.2921,-3.4155,-2.6499,2.6735,0.2817,0.1915,-0.3484,3.9000,-15.1125,-40.6875,189.9277,-0.7228,1.9911,
6.502828,-0.3023,-0.3833,1.2921,-3.4155,-2.6499,2.6735,0.2817,0.1915,-0.3484,3.9000,-15.1125,-40.6875,190.1401,-0.7219,1.5618,
6.504624,-0.3023,-0.3833,1.2921,-4.5679,-6.4230,6.2673,0.2817,0.1915,-0.3484,3.9000,-15.1125,-40.6875,190.1401,-0.7219,1.5618,
6.509289,-0.2942,-0.5072,1.2259,-4.5679,-6.4230,6.2673,0.2817,0.1915,-0.3484,3.9000,-15.1125,-40.6875,190.1401,-0.7219,1.5618,
6.511581,-0.4391,-0.5439,1.4084,-4.5679,-6.4230,6.2673,0.2817,0.1915,-0.3484,3.9000,-15.1125,-40.6875,190.1401,-0.7219,1.5618,
6.513371,-0.3880,-0.7029,1.6183,-4.5679,-6.4230,6.2673,0.2817,0.1915,-0.3484,3.9000,-15.1125,-40.6875,190.1401,-0.7219,1.5618,
6.515077,-0.1058,-0.8383,1.3747,-4.5679,-6.4230,6.2673,0.2817,0.1915,-0.3484,3.9000,-15.1125,-40.6875,190.1401,-0.7219,1.5618,
6.527380,-0.1058,-0.8383,1.3747,-4.5679,-6.4230,6.2673,0.2817,0.1915,-0.3484,4.5188,-15.0000,-41.1375,190.1401,-0.7219,1.5618,
6.565688,-0.1058,-0.8383,1.3747,-4.5679,-6.4230,6.2673,0.1296,0.3130,-0.1379,4.5188,-15.0000,-41.1375,190.1401,-0.7219,1.5618,
6.568608,-0.1058,-0.8383,1.3747,1.0623,-6.9158,8.1612,0.1296,0.3130,-0.1379,4.5188,-15.0000,-41.1375,190.1401,-0.7219,1.5618,
6.570208,-0.1058,-0.8383,1.3747,1.0623,-6.9158,8.1612,0.1296,0.3130,-0.1379,4.5188,-15.0000,-41.1375,190.2011,-0.4959,1.0919,
6.586186,0.1231,-0.7808,1.2503,1.0623,-6.9158,8.1612,0.1296,0.3130,-0.1379,4.5188,-15.0000,-41.1375,190.2011,-0.4959,1.0919,
6.587927,0.1465,-0.6824,1.7076,1.0623,-6.9158,8.1612,0.1296,0.3130,-0.1379,4.5188,-15.0000,-41.1375,190.2011,-0.4959,1.0919,
6.588917,0.2086,-0.8717,1.7800,1.0623,-6.9158,8.1612,0.1296,0.3130,-0.1379,4.5188,-15.0000,-41.1375,190.2011,-0.4959,1.0919,
6.589889,0.2877,-0.8228,1.2015,1.0623,-6.9158,8.1612,0.1296,0.3130,-0.1379,4.5188,-15.0000,-41.1375,190.2011,-0.4959,1.0919,
6.596900,0.2877,-0.8228,1.2015,1.0623,-6.9158,8.1612,0.1296,0.3130,-0.1379,5.0813,-16.2000,-40.0125,190.2011,-0.4959,1.0919,
6.631852,0.2877,-0.8228,1.2015,1.0623,-6.9158,8.1612,-0.2057,0.3597,0.1442,5.0813,-16.2000,-40.0125,190.2011,-0.4959,1.0919,
6.634884,0.2877,-0.8228,1.2015,-0.5083,-8.2513,0.9627,-0.2057,0.3597,0.1442,5.0813,-16.2000,-40.0125,190.2011,-0.4959,1.0919,
6.637201,0.2877,-0.8228,1.2015,-0.5083,-8.2513,0.9627,-0.2057,0.3597,0.1442,5.0813,-16.2000,-40.0125,190.0791,0.1510,0.6443,
6.666012,0.0601,-0.7804,1.0619,-0.5083,-8.2513,0.9627,-0.2057,0.3597,0.1442,5.0813,-16.2000,-40.0125,190.0791,0.1510,0.6443,
6.669568,-0.0651,-0.8148,1.1920,-0.5083,-8.2513,0.9627,-0.2057,0.3597,0.1442,5.0813,-16.2000,-40.0125,190.0791,0.1510,0.6443,
6.671742,-0.1687,-0.8791,1.2764,-0.5083,-8.2513,0.9627,-0.2057,0.3597,0.1442,5.0813,-16.2000,-40.0125,190.0791,0.1510,0.6443,
6.673937,-0.0844,-1.0044,1.0759,-0.5083,-8.2513,0.9627,-0.2057,0.3597,0.1442,5.0813,-16.2000,-40.0125,190.0791,0.1510,0.6443,
6.676308,-0.0844,-1.0044,1.0759,-0.5083,-8.2513,0.9627,-0.2057,0.3597,0.1442,5.7750,-19.4813,-36.5813,190.0791,0.1510,0.6443,
6.699919,-0.0844,-1.0044,1.0759,-0.5083,-8.2513,0.9627,-0.2057,0.3597,0.1442,5.7750,-19.4813,-36.5813,189.9568,1.2900,0.3806,
6.706613,-0.0844,-1.0044,1.0759,1.9838,-10.8528,-4.5275,-0.2057,0.3597,0.1442,5.7750,-19.4813,-36.5813,189.9568,1.2900,0.3806,
6.713754,-0.0844,-1.0044,1.0759,1.9838,-10.8528,-4.5275,-0.5385,0.3018,0.2904,5.7750,-19.4813,-36.5813,189.9568,1.2900,0.3806,
6.738322,-0.0844,-1.0044,1.0759,1.9838,-10.8528,-4.5275,-0.5385,0.3018,0.2904,5.3813,-24.9938,-31.9875,189.9568,1.2900,0.3806,
6.750873,0.1377,-1.0994,0.6831,1.9838,-10.8528,-4.5275,-0.5385,0.3018,0.2904,5.3813,-24.9938,-31.9875,189.9568,1.2900,0.3806,
6.758270,0.2467,-1.0906,0.1993,1.9838,-10.8528,-4.5275,-0.5385,0.3018,0.2904,5.3813,-24.9938,-31.9875,189.9568,1.2900,0.3806,
6.762441,-0.2107,-0.9125,0.2746,1.9838,-10.8528,-4.5275,-0.5385,0.3018,0.2904,5.3813,-24.9938,-31.9875,189.9568,1.2900,0.3806,
6.767555,-0.7296,-0.9059,0.5062,1.9838,-10.8528,-4.5275,-0.5385,0.3018,0.2904,5.3813,-24.9938,-31.9875,189.9568,1.2900,0.3806,
6.772216,-0.7296,-0.9059,0.5062,-6.1612,-11.1489,-8.3557,-0.5385,0.3018,0.2904,5.3813,-24.9938,-31.9875,189.9568,1.2900,0.3806,
6.777776,-0.7296,-0.9059,0.5062,-6.1612,-11.1489,-8.3557,-0.5385,0.3018,0.2904,5.3813,-24.9938,-31.9875,189.7874,2.5819,0.1839,
6.779698,-0.7296,-0.9059,0.5062,-6.1612,-11.1489,-8.3557,-0.7402,0.1784,0.2529,5.3813,-24.9938,-31.9875,189.7874,2.5819,0.1839,
6.810630,-0.7296,-0.9059,0.5062,-6.1612,-11.1489,-8.3557,-0.7402,0.1784,0.2529,4.2938,-31.1250,-28.1063,189.7874,2.5819,0.1839,
6.826932,-0.3934,-0.7845,0.0420,-6.1612,-11.1489,-8.3557,-0.7402,0.1784,0.2529,4.2938,-31.1250,-28.1063,189.7874,2.5819,0.1839,
6.841033,1.0683,0.4791,-0.3179,-6.1612,-11.1489,-8.3557,-0.7402,0.1784,0.2529,4.2938,-31.1250,-28.1063,189.7874,2.5819,0.1839,
6.844919,0.7368,-0.1334,3.2697,-6.1612,-11.1489,-8.3557,-0.7402,0.1784,0.2529,4.2938,-31.1250,-28.1063,189.7874,2.5819,0.1839,
6.849387,0.9525,-0.3872,3.4811,-6.1612,-11.1489,-8.3557,-0.7402,0.1784,0.2529,4.2938,-31.1250,-28.1063,189.7874,2.5819,0.1839,
6.857254,0.9525,-0.3872,3.4811,-6.1612,-11.1489,-8.3557,-0.7402,0.1784,0.2529,4.2938,-31.1250,-28.1063,189.9218,3.7749,0.4581,
6.859684,0.9525,-0.3872,3.4811,13.2040,-1.4449,19.8404,-0.7402,0.1784,0.2529,4.2938,-31.1250,-28.1063,189.9218,3.7749,0.4581,
6.861495,0.9525,-0.3872,3.4811,13.2040,-1.4449,19.8404,-0.8055,0.0562,0.1462,4.2938,-31.1250,-28.1063,189.9218,3.7749,0.4581,
6.879915,0.9525,-0.3872,3.4811,13.2040,-1.4449,19.8404,-0.8055,0.0562,0.1462,3.2625,-36.3938,-25.3125,189.9218,3.7749,0.4581,
6.899223,0.9525,-0.3872,3.4811,6.0246,-6.1436,67.1781,-0.8055,0.0562,0.1462,3.2625,-36.3938,-25.3125,189.9218,3.7749,0.4581,
6.909430,0.9525,-0.3872,3.4811,6.0246,-6.1436,67.1781,-0.8055,0.0562,0.1462,3.2625,-36.3938,-25.3125,190.1406,4.7780,0.9712,
6.913494,0.9525,-0.3872,3.4811,6.0246,-6.1436,67.1781,-0.7511,-0.0674,0.0369,3.2625,-36.3938,-25.3125,190.1406,4.7780,0.9712,
6.919160,1.2606,0.0425,1.1355,6.0246,-6.1436,67.1781,-0.7511,-0.0674,0.0369,3.2625,-36.3938,-25.3125,190.1406,4.7780,0.9712,
6.922931,-0.3932,0.1062,-0.5541,6.0246,-6.1436,67.1781,-0.7511,-0.0674,0.0369,3.2625,-36.3938,-25.3125,190.1406,4.7780,0.9712,
6.926338,-0.4919,-0.0467,0.1187,6.0246,-6.1436,67.1781,-0.7511,-0.0674,0.0369,3.2625,-36.3938,-25.3125,190.1406,4.7780,0.9712,
6.930336,-0.0020,-0.3621,4.2448,6.0246,-6.1436,67.1781,-0.7511,-0.0674,0.0369,3.2625,-36.3938,-25.3125,190.1406,4.7780,0.9712,
6.947498,-0.0020,-0.3621,4.2448,6.0246,-6.1436,67.1781,-0.7511,-0.0674,0.0369,2.3813,-40.3125,-23.1750,190.1406,4.7780,0.9712,
6.965680,-0.0020,-0.3621,4.2448,6.0246,-6.1436,67.1781,-0.5557,-0.2212,-0.0635,2.3813,-40.3125,-23.1750,190.1406,4.7780,0.9712,
6.971636,-0.0020,-0.3621,4.2448,0.5589,1.2672,-0.8668,-0.5557,-0.2212,-0.0635,2.3813,-40.3125,-23.1750,190.1406,4.7780,0.9712,
6.976121,-0.0020,-0.3621,4.2448,0.5589,1.2672,-0.8668,-0.5557,-0.2212,-0.0635,2.3813,-40.3125,-23.1750,190.2516,5.4997,1.4312,
6.981672,0.0664,0.0442,0.8445,0.5589,1.2672,-0.8668,-0.5557,-0.2212,-0.0635,2.3813,-40.3125,-23.1750,190.2516,5.4997,1.4312,
6.986866,0.0957,0.0359,0.7549,0.5589,1.2672,-0.8668,-0.5557,-0.2212,-0.0635,2.3813,-40.3125,-23.1750,190.2516,5.4997,1.4312,
6.992394,0.0522,0.0288,1.0075,0.5589,1.2672,-0.8668,-0.5557,-0.2212,-0.0635,2.3813,-40.3125,-23.1750,190.2516,5.4997,1.4312,
6.996555,0.0547,0.0269,1.0270,0.5589,1.2672,-0.8668,-0.5557,-0.2212,-0.0635,2.3813,-40.3125,-23.1750,190.2516,5.4997,1.4312,
7.018849,0.0547,0.0269,1.0270,0.5589,1.2672,-0.8668,-0.5557,-0.2212,-0.0635,1.3125,-42.3750,-21.5813,190.2516,5.4997,1.4312,
7.033299,0.0547,0.0269,1.0270,0.5589,1.2672,-0.8668,-0.2670,-0.3496,-0.1138,1.3125,-42.3750,-21.5813,190.2516,5.4997,1.4312,
7.040295,0.0547,0.0269,1.0270,0.4915,1.3378,-0.0327,-0.2670,-0.3496,-0.1138,1.3125,-42.3750,-21.5813,190.2516,5.4997,1.4312,
7.046076,0.0547,0.0269,1.0270,0.4915,1.3378,-0.0327,-0.2670,-0.3496,-0.1138,1.3125,-42.3750,-21.5813,190.3193,5.9719,1.9092,
7.060700,0.0613,0.0317,1.0080,0.4915,1.3378,-0.0327,-0.2670,-0.3496,-0.1138,1.3125,-42.3750,-21.5813,190.3193,5.9719,1.9092,
7.071505,0.0718,0.0325,0.9975,0.4915,1.3378,-0.0327,-0.2670,-0.3496,-0.1138,1.3125,-42.3750,-21.5813,190.3193,5.9719,1.9092,
7.077881,0.0825,0.0320,0.9985,0.4915,1.3378,-0.0327,-0.2670,-0.3496,-0.1138,1.3125,-42.3750,-21.5813,190.3193,5.9719,1.9092,
7.082179,0.0762,0.0310,1.0158,0.4915,1.3378,-0.0327,-0.2670,-0.3496,-0.1138,1.3125,-42.3750,-21.5813,190.3193,5.9719,1.9092,
7.089772,0.0762,0.0310,1.0158,0.4915,1.3378,-0.0327,-0.2670,-0.3496,-0.1138,0.0938,-42.9563,-21.2063,190.3193,5.9719,1.9092,
7.099679,0.0762,0.0310,1.0158,0.4915,1.3378,-0.0327,-0.0220,-0.3657,-0.0785,0.0938,-42.9563,-21.2063,190.3193,5.9719,1.9092,
7.102423,0.0762,0.0310,1.0158,0.4482,1.3562,0.1446,-0.0220,-0.3657,-0.0785,0.0938,-42.9563,-21.2063,190.3193,5.9719,1.9092,
7.104194,0.0762,0.0310,1.0158,0.4482,1.3562,0.1446,-0.0220,-0.3657,-0.0785,0.0938,-42.9563,-21.2063,190.2959,6.1099,2.3022,
7.139422,0.0742,0.0317,1.0107,0.4482,1.3562,0.1446,-0.0220,-0.3657,-0.0785,0.0938,-42.9563,-21.2063,190.2959,6.1099,2.3022,
7.150735,0.0842,0.0310,1.0068,0.4482,1.3562,0.1446,-0.0220,-0.3657,-0.0785,0.0938,-42.9563,-21.2063,190.2959,6.1099,2.3022,
7.158678,0.0840,0.0337,1.0107,0.4482,1.3562,0.1446,-0.0220,-0.3657,-0.0785,0.0938,-42.9563,-21.2063,190.2959,6.1099,2.3022,
7.162978,0.0896,0.0327,1.0014,0.4482,1.3562,0.1446,-0.0220,-0.3657,-0.0785,0.0938,-42.9563,-21.2063,190.2959,6.1099,2.3022,
7.168243,0.0896,0.0327,1.0014,0.4482,1.3562,0.1446,-0.0220,-0.3657,-0.0785,-1.0500,-42.4875,-22.1063,190.2959,6.1099,2.3022,
7.173319,0.0896,0.0327,1.0014,0.4482,1.3562,0.1446,-0.0220,-0.3657,-0.0785,-1.0500,-42.4875,-22.1063,190.2648,6.1099,2.7224,
7.177989,0.0896,0.0327,1.0014,0.3764,1.3559,0.1477,-0.0220,-0.3657,-0.0785,-1.0500,-42.4875,-22.1063,190.2648,6.1099,2.7224,
7.179923,0.0896,0.0327,1.0014,0.3764,1.3559,0.1477,0.1118,-0.2844,0.0076,-1.0500,-42.4875,-22.1063,190.2648,6.1099,2.7224,
7.215654,0.0938,0.0352,1.0004,0.3764,1.3559,0.1477,0.1118,-0.2844,0.0076,-1.0500,-42.4875,-22.1063,190.2648,6.1099,2.7224,
7.224363,0.0982,0.0359,0.9992,0.3764,1.3559,0.1477,0.1118,-0.2844,0.0076,-1.0500,-42.4875,-22.1063,190.2648,6.1099,2.7224,
7.233052,0.0991,0.0361,1.0046,0.3764,1.3559,0.1477,0.1118,-0.2844,0.0076,-1.0500,-42.4875,-22.1063,190.2648,6.1099,2.7224,
7.238933,0.0999,0.0369,1.0031,0.3764,1.3559,0.1477,0.1118,-0.2844,0.0076,-1.0500,-42.4875,-22.1063,190.2648,6.1099,2.7224,
7.243110,0.0999,0.0369,1.0031,0.3764,1.3559,0.1477,0.1118,-0.2844,0.0076,-2.3813,-41.6063,-24.1313,190.2648,6.1099,2.7224,
7.247457,0.0999,0.0369,1.0031,0.3764,1.3559,0.1477,0.1669,-0.1839,0.0891,-2.3813,-41.6063,-24.1313,190.2648,6.1099,2.7224,
7.252923,0.0999,0.0369,1.0031,0.4740,1.4021,0.0194,0.1669,-0.1839,0.0891,-2.3813,-41.6063,-24.1313,190.2648,6.1099,2.7224,
7.258554,0.0999,0.0369,1.0031,0.4740,1.4021,0.0194,0.1669,-0.1839,0.0891,-2.3813,-41.6063,-24.1313,190.2648,6.1099,2.7224,
7.297502,0.1013,0.0378,1.0038,0.4740,1.4021,0.0194,0.1669,-0.1839,0.0891,-2.3813,-41.6063,-24.1313,190.2648,6.1099,2.7224,
7.308199,0.1030,0.0403,1.0068,0.4740,1.4021,0.0194,0.1669,-0.1839,0.0891,-2.3813,-41.6063,-24.1313,190.2648,6.1099,2.7224,
7.315572,0.1072,0.0391,1.0043,0.4740,1.4021,0.0194,0.1669,-0.1839,0.0891,-2.3813,-41.6063,-24.1313,190.2648,6.1099,2.7224,
7.322342,0.1109,0.0418,1.0063,0.4740,1.4021,0.0194,0.1669,-0.1839,0.0891,-2.3813,-41.6063,-24.1313,190.2648,6.1099,2.7224,
7.327482,0.1109,0.0418,1.0063,0.4740,1.4021,0.0194,0.1669,-0.1839,0.0891,-3.4875,-40.6500,-26.4188,190.2648,6.1099,2.7224,
7.333012,0.1109,0.0418,1.0063,0.4740,1.4021,0.0194,0.1876,-0.1149,0.1394,-3.4875,-40.6500,-26.4188,190.2648,6.1099,2.7224,
7.338748,0.1109,0.0418,1.0063,0.4973,1.4188,0.0821,0.1876,-0.1149,0.1394,-3.4875,-40.6500,-26.4188,190.2648,6.1099,2.7224,
7.340610,0.1109,0.0418,1.0063,0.4973,1.4188,0.0821,0.1876,-0.1149,0.1394,-3.4875,-40.6500,-26.4188,190.2648,6.1099,2.7224,
7.367723,0.1109,0.0418,1.0063,0.4973,1.4188,0.0821,0.1943,-0.0806,0.1599,-3.4875,-40.6500,-26.4188,190.2648,6.1099,2.7224,
7.379659,0.1109,0.0418,1.0063,0.5519,1.4492,0.1114,0.1943,-0.0806,0.1599,-3.4875,-40.6500,-26.4188,190.2648,6.1099,2.7224,
7.385097,0.1109,0.0418,1.0063,0.5519,1.4492,0.1114,0.1943,-0.0806,0.1599,-3.4875,-40.6500,-26.4188,189.4890,6.0693,3.0401,
7.390746,0.1109,0.0418,1.0063,0.5519,1.4492,0.1114,0.1943,-0.0806,0.1599,-3.9188,-39.9000,-27.9375,189.4890,6.0693,3.0401,
7.396577,0.1111,0.0427,1.0046,0.5519,1.4492,0.1114,0.1943,-0.0806,0.1599,-3.9188,-39.9000,-27.9375,189.4890,6.0693,3.0401,
7.402074,0.1157,0.0454,0.9980,0.5519,1.4492,0.1114,0.1943,-0.0806,0.1599,-3.9188,-39.9000,-27.9375,189.4890,6.0693,3.0401,
7.407703,0.1248,0.0466,0.9941,0.5519,1.4492,0.1114,0.1943,-0.0806,0.1599,-3.9188,-39.9000,-27.9375,189.4890,6.0693,3.0401,
7.412803,0.1277,0.0474,0.9960,0.5519,1.4492,0.1114,0.1943,-0.0806,0.1599,-3.9188,-39.9000,-27.9375,189.4890,6.0693,3.0401,
7.433702,0.1277,0.0474,0.9960,0.5519,1.4492,0.1114,0.1938,-0.0642,0.1617,-3.9188,-39.9000,-27.9375,189.4890,6.0693,3.0401,
7.436588,0.1277,0.0474,0.9960,0.7160,1.4889,0.0593,0.1938,-0.0642,0.1617,-3.9188,-39.9000,-27.9375,189.4890,6.0693,3.0401,
7.438753,0.1277,0.0474,0.9960,0.7160,1.4889,0.0593,0.1938,-0.0642,0.1617,-3.9188,-39.9000,-27.9375,189.4890,6.0693,3.0401,
7.440809,0.1277,0.0474,0.9960,0.7160,1.4889,0.0593,0.1938,-0.0642,0.1617,-4.1250,-39.5250,-28.4250,189.4890,6.0693,3.0401,
7.451907,0.1253,0.0452,1.0058,0.7160,1.4889,0.0593,0.1938,-0.0642,0.1617,-4.1250,-39.5250,-28.4250,189.4890,6.0693,3.0401,
7.455141,0.1343,0.0508,0.9967,0.7160,1.4889,0.0593,0.1938,-0.0642,0.1617,-4.1250,-39.5250,-28.4250,189.4890,6.0693,3.0401,
7.457390,0.1453,0.0159,1.0065,0.7160,1.4889,0.0593,0.1938,-0.0642,0.1617,-4.1250,-39.5250,-28.4250,189.4890,6.0693,3.0401,
7.459526,0.1411,0.0535,0.9963,0.7160,1.4889,0.0593,0.1938,-0.0642,0.1617,-4.1250,-39.5250,-28.4250,189.4890,6.0693,3.0401,
7.507463,0.1411,0.0535,0.9963,0.7543,1.7817,-0.4045,0.1938,-0.0642,0.1617,-4.1250,-39.5250,-28.4250,189.4890,6.0693,3.0401,
7.518911,0.1411,0.0535,0.9963,0.7543,1.7817,-0.4045,0.1938,-0.0642,0.1617,-4.1250,-39.5250,-28.4250,189.4890,6.0693,3.0401,
7.526794,0.1411,0.0535,0.9963,0.7543,1.7817,-0.4045,0.1892,-0.0566,0.1501,-4.1250,-39.5250,-28.4250,189.4890,6.0693,3.0401,
7.534123,0.1411,0.0535,0.9963,0.7543,1.7817,-0.4045,0.1892,-0.0566,0.1501,-4.4250,-39.5063,-28.3313,189.4890,6.0693,3.0401,
7.537477,0.1472,0.0461,0.9945,0.7543,1.7817,-0.4045,0.1892,-0.0566,0.1501,-4.4250,-39.5063,-28.3313,189.4890,6.0693,3.0401,
7.539456,0.1345,0.0564,0.9897,0.7543,1.7817,-0.4045,0.1892,-0.0566,0.1501,-4.4250,-39.5063,-28.3313,189.4890,6.0693,3.0401,
7.541433,0.1155,0.0479,0.9980,0.7543,1.7817,-0.4045,0.1892,-0.0566,0.1501,-4.4250,-39.5063,-28.3313,189.4890,6.0693,3.0401,
7.543354,0.1228,0.0381,0.9972,0.7543,1.7817,-0.4045,0.1892,-0.0566,0.1501,-4.4250,-39.5063,-28.3313,189.4890,6.0693,3.0401,
7.565291,0.1228,0.0381,0.9972,0.7543,1.7817,-0.4045,0.1824,-0.0537,0.1323,-4.4250,-39.5063,-28.3313,189.4890,6.0693,3.0401,
7.567936,0.1228,0.0381,0.9972,0.5468,1.4415,0.0280,0.1824,-0.0537,0.1323,-4.4250,-39.5063,-28.3313,189.4890,6.0693,3.0401,
7.569933,0.1228,0.0381,0.9972,0.5468,1.4415,0.0280,0.1824,-0.0537,0.1323,-4.4250,-39.5063,-28.3313,188.6958,6.0261,3.4064,
7.577721,0.1228,0.0381,0.9972,0.5468,1.4415,0.0280,0.1824,-0.0537,0.1323,-4.7438,-39.4125,-28.4438,188.6958,6.0261,3.4064,
7.608533,0.1761,0.0332,0.9608,0.5468,1.4415,0.0280,0.1824,-0.0537,0.1323,-4.7438,-39.4125,-28.4438,188.6958,6.0261,3.4064,
7.610696,0.1715,0.0728,0.6628,0.5468,1.4415,0.0280,0.1824,-0.0537,0.1323,-4.7438,-39.4125,-28.4438,188.6958,6.0261,3.4064,
7.612086,0.0490,0.1062,0.7280,0.5468,1.4415,0.0280,0.1824,-0.0537,0.1323,-4.7438,-39.4125,-28.4438,188.6958,6.0261,3.4064,
7.613358,0.3061,-0.5795,0.7932,0.5468,1.4415,0.0280,0.1824,-0.0537,0.1323,-4.7438,-39.4125,-28.4438,188.6958,6.0261,3.4064,
7.632759,0.3061,-0.5795,0.7932,0.5468,1.4415,0.0280,0.1699,-0.0534,0.1186,-4.7438,-39.4125,-28.4438,188.6958,6.0261,3.4064,
7.636066,0.3061,-0.5795,0.7932,-1.2641,3.6150,-4.8778,0.1699,-0.0534,0.1186,-4.7438,-39.4125,-28.4438,188.6958,6.0261,3.4064,
7.638268,0.3061,-0.5795,0.7932,-1.2641,3.6150,-4.8778,0.1699,-0.0534,0.1186,-4.7438,-39.4125,-28.4438,188.6958,6.0261,3.4064,
7.647916,0.3061,-0.5795,0.7932,-1.2641,3.6150,-4.8778,0.1699,-0.0534,0.1186,-5.3625,-37.6688,-29.7938,188.6958,6.0261,3.4064,
7.687552,0.1900,-1.1954,1.0641,-1.2641,3.6150,-4.8778,0.1699,-0.0534,0.1186,-5.3625,-37.6688,-29.7938,188.6958,6.0261,3.4064,
7.690728,-0.9658,-1.6948,1.6065,-1.2641,3.6150,-4.8778,0.1699,-0.0534,0.1186,-5.3625,-37.6688,-29.7938,188.6958,6.0261,3.4064,
7.692987,-2.1971,-2.2809,4.6144,-1.2641,3.6150,-4.8778,0.1699,-0.0534,0.1186,-5.3625,-37.6688,-29.7938,188.6958,6.0261,3.4064,
7.695179,1.1139,-1.7661,2.0910,-1.2641,3.6150,-4.8778,0.1699,-0.0534,0.1186,-5.3625,-37.6688,-29.7938,188.6958,6.0261,3.4064,
7.701240,1.1139,-1.7661,2.0910,-1.2641,3.6150,-4.8778,0.0826,-0.0617,0.1202,-5.3625,-37.6688,-29.7938,188.6958,6.0261,3.4064,
7.711499,1.1139,-1.7661,2.0910,-17.6007,-16.9803,0.3866,0.0826,-0.0617,0.1202,-5.3625,-37.6688,-29.7938,188.6958,6.0261,3.4064,
7.718411,1.1139,-1.7661,2.0910,-17.6007,-16.9803,0.3866,0.0826,-0.0617,0.1202,-5.3625,-37.6688,-29.7938,188.3171,7.0427,4.1599,
7.723047,1.1139,-1.7661,2.0910,-17.6007,-16.9803,0.3866,0.0826,-0.0617,0.1202,-6.5250,-32.5688,-32.1938,188.3171,7.0427,4.1599,
7.769045,2.2776,-1.4707,0.7571,-17.6007,-16.9803,0.3866,0.0826,-0.0617,0.1202,-6.5250,-32.5688,-32.1938,188.3171,7.0427,4.1599,
7.780106,1.7634,-0.6712,2.7450,-17.6007,-16.9803,0.3866,0.0826,-0.0617,0.1202,-6.5250,-32.5688,-32.1938,188.3171,7.0427,4.1599,
7.790279,0.2943,0.1011,2.3778,-17.6007,-16.9803,0.3866,0.0826,-0.0617,0.1202,-6.5250,-32.5688,-32.1938,188.3171,7.0427,4.1599,
7.798577,0.0757,0.2953,2.8090,-17.6007,-16.9803,0.3866,0.0826,-0.0617,0.1202,-6.5250,-32.5688,-32.1938,188.3171,7.0427,4.1599,
7.804313,0.0757,0.2953,2.8090,-17.6007,-16.9803,0.3866,-0.1696,-0.0809,0.1483,-6.5250,-32.5688,-32.1938,188.3171,7.0427,4.1599,
7.808507,0.0757,0.2953,2.8090,20.4656,-7.8183,17.6548,-0.1696,-0.0809,0.1483,-6.5250,-32.5688,-32.1938,188.3171,7.0427,4.1599,
7.812667,0.0757,0.2953,2.8090,20.4656,-7.8183,17.6548,-0.1696,-0.0809,0.1483,-6.5250,-32.5688,-32.1938,188.2125,7.6527,4.7019,
7.816578,0.0757,0.2953,2.8090,20.4656,-7.8183,17.6548,-0.1696,-0.0809,0.1483,-7.8188,-25.7063,-33.8438,188.2125,7.6527,4.7019,
7.832867,0.0757,0.2953,2.8090,20.4656,-7.8183,17.6548,-0.4711,-0.0934,0.1943,-7.8188,-25.7063,-33.8438,188.2125,7.6527,4.7019,
7.839759,0.0757,0.2953,2.8090,-0.9621,8.2746,8.7005,-0.4711,-0.0934,0.1943,-7.8188,-25.7063,-33.8438,188.2125,7.6527,4.7019,
7.847986,0.0757,0.2953,2.8090,-0.9621,8.2746,8.7005,-0.4711,-0.0934,0.1943,-7.8188,-25.7063,-33.8438,188.0324,8.1918,5.1492,
7.854297,0.0542,0.6154,2.0292,-0.9621,8.2746,8.7005,-0.4711,-0.0934,0.1943,-7.8188,-25.7063,-33.8438,188.0324,8.1918,5.1492,
7.858660,-0.0308,0.5203,1.6324,-0.9621,8.2746,8.7005,-0.4711,-0.0934,0.1943,-7.8188,-25.7063,-33.8438,188.0324,8.1918,5.1492,
7.860574,-0.1850,0.3547,0.8445,-0.9621,8.2746,8.7005,-0.4711,-0.0934,0.1943,-7.8188,-25.7063,-33.8438,188.0324,8.1918,5.1492,
7.862260,-0.3467,0.3720,1.0639,-0.9621,8.2746,8.7005,-0.4711,-0.0934,0.1943,-7.8188,-25.7063,-33.8438,188.0324,8.1918,5.1492,
7.864082,-0.3467,0.3720,1.0639,-0.9621,8.2746,8.7005,-0.4711,-0.0934,0.1943,-9.8063,-18.8625,-35.6438,188.0324,8.1918,5.1492,
7.901399,-0.3467,0.3720,1.0639,-0.9621,8.2746,8.7005,-0.5519,-0.0680,0.2519,-9.8063,-18.8625,-35.6438,188.0324,8.1918,5.1492,
7.912136,-0.3467,0.3720,1.0639,-4.5118,2.1941,-1.0045,-0.5519,-0.0680,0.2519,-9.8063,-18.8625,-35.6438,188.0324,8.1918,5.1492,
7.921109,-0.3467,0.3720,1.0639,-4.5118,2.1941,-1.0045,-0.5519,-0.0680,0.2519,-9.8063,-18.8625,-35.6438,187.6798,8.7974,5.4670,
7.931711,-0.3849,0.0400,0.7705,-4.5118,2.1941,-1.0045,-0.5519,-0.0680,0.2519,-9.8063,-18.8625,-35.6438,187.6798,8.7974,5.4670,
7.939437,-0.4366,-0.0142,0.9195,-4.5118,2.1941,-1.0045,-0.5519,-0.0680,0.2519,-9.8063,-18.8625,-35.6438,187.6798,8.7974,5.4670,
7.944609,-0.3623,-0.3340,0.8328,-4.5118,2.1941,-1.0045,-0.5519,-0.0680,0.2519,-9.8063,-18.8625,-35.6438,187.6798,8.7974,5.4670,
7.949509,-0.3753,-0.5069,0.3806,-4.5118,2.1941,-1.0045,-0.5519,-0.0680,0.2519,-9.8063,-18.8625,-35.6438,187.6798,8.7974,5.4670,
7.954077,-0.3753,-0.5069,0.3806,-4.5118,2.1941,-1.0045,-0.5519,-0.0680,0.2519,-12.0000,-13.9688,-37.5750,187.6798,8.7974,5.4670,
7.968073,-0.3753,-0.5069,0.3806,-4.8242,-3.1846,-5.9364,-0.5519,-0.0680,0.2519,-12.0000,-13.9688,-37.5750,187.6798,8.7974,5.4670,
7.971055,-0.3753,-0.5069,0.3806,-4.8242,-3.1846,-5.9364,-0.5519,-0.0680,0.2519,-12.0000,-13.9688,-37.5750,187.1050,9.5612,5.6703,
7.972833,-0.3753,-0.5069,0.3806,-4.8242,-3.1846,-5.9364,-0.3353,0.0041,0.3645,-12.0000,-13.9688,-37.5750,187.1050,9.5612,5.6703,
7.998380,-0.3753,-0.5069,0.3806,-4.8242,-3.1846,-5.9364,-0.3353,0.0041,0.3645,-13.8750,-11.1750,-39.1125,187.1050,9.5612,5.6703,
8.011469,-0.3793,-0.4674,0.6662,-4.8242,-3.1846,-5.9364,-0.3353,0.0041,0.3645,-13.8750,-11.1750,-39.1125,187.1050,9.5612,5.6703,
8.018520,-0.2791,-0.6604,0.6953,-4.8242,-3.1846,-5.9364,-0.3353,0.0041,0.3645,-13.8750,-11.1750,-39.1125,187.1050,9.5612,5.6703,
8.023450,-0.0355,-0.6924,0.7996,-4.8242,-3.1846,-5.9364,-0.3353,0.0041,0.3645,-13.8750,-11.1750,-39.1125,187.1050,9.5612,5.6703,
8.029638,0.6410,-0.7053,0.9178,-4.8242,-3.1846,-5.9364,-0.3353,0.0041,0.3645,-13.8750,-11.1750,-39.1125,187.1050,9.5612,5.6703,
8.035723,0.6410,-0.7053,0.9178,-4.8242,-3.1846,-5.9364,-0.0725,0.0852,0.5870,-13.8750,-11.1750,-39.1125,187.1050,9.5612,5.6703,
8.039760,0.6410,-0.7053,0.9178,2.9309,-4.9153,-0.8628,-0.0725,0.0852,0.5870,-13.8750,-11.1750,-39.1125,187.1050,9.5612,5.6703,
8.042024,0.6410,-0.7053,0.9178,2.9309,-4.9153,-0.8628,-0.0725,0.0852,0.5870,-13.8750,-11.1750,-39.1125,186.5996,10.2135,6.1048,
8.069030,0.6410,-0.7053,0.9178,2.9309,-4.9153,-0.8628,-0.0725,0.0852,0.5870,-14.7563,-10.1063,-39.8438,186.5996,10.2135,6.1048,
8.080710,1.2996,-0.8238,1.0889,2.9309,-4.9153,-0.8628,-0.0725,0.0852,0.5870,-14.7563,-10.1063,-39.8438,186.5996,10.2135,6.1048,
8.087200,0.8955,-0.8627,1.3056,2.9309,-4.9153,-0.8628,-0.0725,0.0852,0.5870,-14.7563,-10.1063,-39.8438,186.5996,10.2135,6.1048,
8.094557,0.3192,-0.8927,1.4636,2.9309,-4.9153,-0.8628,-0.0725,0.0852,0.5870,-14.7563,-10.1063,-39.8438,186.5996,10.2135,6.1048,
8.106021,-0.1337,-0.8612,1.4211,2.9309,-4.9153,-0.8628,-0.0725,0.0852,0.5870,-14.7563,-10.1063,-39.8438,186.5996,10.2135,6.1048,
8.111005,-0.1337,-0.8612,1.4211,2.9309,-4.9153,-0.8628,-0.0421,0.1350,0.8562,-14.7563,-10.1063,-39.8438,186.5996,10.2135,6.1048,
8.115302,-0.1337,-0.8612,1.4211,0.7945,-7.0663,4.7411,-0.0421,0.1350,0.8562,-14.7563,-10.1063,-39.8438,186.5996,10.2135,6.1048,
8.119233,-0.1337,-0.8612,1.4211,0.7945,-7.0663,4.7411,-0.0421,0.1350,0.8562,-14.7563,-10.1063,-39.8438,186.5996,10.2135,6.1048,
8.140802,-0.1337,-0.8612,1.4211,0.7945,-7.0663,4.7411,-0.0421,0.1350,0.8562,-15.1688,-10.7250,-39.4500,186.5996,10.2135,6.1048,
8.162861,-0.3988,-0.8199,1.5127,0.7945,-7.0663,4.7411,-0.0421,0.1350,0.8562,-15.1688,-10.7250,-39.4500,186.5996,10.2135,6.1048,
8.175432,-0.3074,-0.7955,1.6737,0.7945,-7.0663,4.7411,-0.0421,0.1350,0.8562,-15.1688,-10.7250,-39.4500,186.5996,10.2135,6.1048,
8.180344,0.0718,-0.7366,1.6610,0.7945,-7.0663,4.7411,-0.0421,0.1350,0.8562,-15.1688,-10.7250,-39.4500,186.5996,10.2135,6.1048,
8.184878,0.6486,-0.6304,1.5511,0.7945,-7.0663,4.7411,-0.0421,0.1350,0.8562,-15.1688,-10.7250,-39.4500,186.5996,10.2135,6.1048,
8.191608,0.6486,-0.6304,1.5511,-1.2628,-5.6162,7.0583,-0.0421,0.1350,0.8562,-15.1688,-10.7250,-39.4500,186.5996,10.2135,6.1048,
8.198622,0.6486,-0.6304,1.5511,-1.2628,-5.6162,7.0583,-0.0421,0.1350,0.8562,-15.1688,-10.7250,-39.4500,184.5608,10.8280,5.9019,
8.200568,0.6486,-0.6304,1.5511,-1.2628,-5.6162,7.0583,-0.2138,0.1086,0.9110,-15.1688,-10.7250,-39.4500,184.5608,10.8280,5.9019,
8.209200,0.6486,-0.6304,1.5511,-1.2628,-5.6162,7.0583,-0.2138,0.1086,0.9110,-14.9063,-13.1250,-37.1438,184.5608,10.8280,5.9019,
8.233114,0.6486,-0.6304,1.5511,-1.2628,-5.6162,7.0583,-0.3825,-0.0181,0.5832,-14.9063,-13.1250,-37.1438,184.5608,10.8280,5.9019,
8.243705,0.6486,-0.6304,1.5511,8.6006,-5.6682,6.4297,-0.3825,-0.0181,0.5832,-14.9063,-13.1250,-37.1438,184.5608,10.8280,5.9019,
8.249588,0.6486,-0.6304,1.5511,8.6006,-5.6682,6.4297,-0.3825,-0.0181,0.5832,-14.9063,-13.1250,-37.1438,183.5755,11.7847,6.1874,
8.254899,1.0834,-0.6658,1.4919,8.6006,-5.6682,6.4297,-0.3825,-0.0181,0.5832,-14.9063,-13.1250,-37.1438,183.5755,11.7847,6.1874,
8.259681,1.0346,-0.7276,1.5945,8.6006,-5.6682,6.4297,-0.3825,-0.0181,0.5832,-14.9063,-13.1250,-37.1438,183.5755,11.7847,6.1874,
8.263706,0.9090,-1.0212,1.2830,8.6006,-5.6682,6.4297,-0.3825,-0.0181,0.5832,-14.9063,-13.1250,-37.1438,183.5755,11.7847,6.1874,
8.268312,0.7551,-1.0276,0.3258,8.6006,-5.6682,6.4297,-0.3825,-0.0181,0.5832,-14.9063,-13.1250,-37.1438,183.5755,11.7847,6.1874,
8.277405,0.7551,-1.0276,0.3258,8.6006,-5.6682,6.4297,-0.3825,-0.0181,0.5832,-13.2750,-19.8000,-32.7563,183.5755,11.7847,6.1874,
8.299637,0.7551,-1.0276,0.3258,8.6006,-5.6682,6.4297,-0.4503,-0.1972,0.0464,-13.2750,-19.8000,-32.7563,183.5755,11.7847,6.1874,
8.307542,0.7551,-1.0276,0.3258,1.8888,-4.9755,-9.8735,-0.4503,-0.1972,0.0464,-13.2750,-19.8000,-32.7563,183.5755,11.7847,6.1874,
8.313304,0.7551,-1.0276,0.3258,1.8888,-4.9755,-9.8735,-0.4503,-0.1972,0.0464,-13.2750,-19.8000,-32.7563,182.7791,12.8825,6.6853,
8.318977,0.4328,-0.7616,-0.0762,1.8888,-4.9755,-9.8735,-0.4503,-0.1972,0.0464,-13.2750,-19.8000,-32.7563,182.7791,12.8825,6.6853,
8.323017,0.2758,-0.6853,0.1067,1.8888,-4.9755,-9.8735,-0.4503,-0.1972,0.0464,-13.2750,-19.8000,-32.7563,182.7791,12.8825,6.6853,
8.327722,0.2437,-0.4166,0.9354,1.8888,-4.9755,-9.8735,-0.4503,-0.1972,0.0464,-13.2750,-19.8000,-32.7563,182.7791,12.8825,6.6853,
8.331325,0.2179,-0.2006,1.4062,1.8888,-4.9755,-9.8735,-0.4503,-0.1972,0.0464,-13.2750,-19.8000,-32.7563,182.7791,12.8825,6.6853,
8.347567,0.2179,-0.2006,1.4062,1.8888,-4.9755,-9.8735,-0.4503,-0.1972,0.0464,-11.1000,-28.4063,-29.1750,182.7791,12.8825,6.6853,
8.366364,0.2179,-0.2006,1.4062,1.8888,-4.9755,-9.8735,-0.4423,-0.3530,-0.4109,-11.1000,-28.4063,-29.1750,182.7791,12.8825,6.6853,
8.374320,0.2179,-0.2006,1.4062,-4.1435,1.8419,2.0149,-0.4423,-0.3530,-0.4109,-11.1000,-28.4063,-29.1750,182.7791,12.8825,6.6853,
8.380386,0.2179,-0.2006,1.4062,-4.1435,1.8419,2.0149,-0.4423,-0.3530,-0.4109,-11.1000,-28.4063,-29.1750,182.3759,13.7407,7.5529,
8.394979,-0.1261,-0.0816,1.3192,-4.1435,1.8419,2.0149,-0.4423,-0.3530,-0.4109,-11.1000,-28.4063,-29.1750,182.3759,13.7407,7.5529,
8.400895,0.1976,0.4038,0.0991,-4.1435,1.8419,2.0149,-0.4423,-0.3530,-0.4109,-11.1000,-28.4063,-29.1750,182.3759,13.7407,7.5529,
8.405619,0.3214,0.6652,-0.0279,-4.1435,1.8419,2.0149,-0.4423,-0.3530,-0.4109,-11.1000,-28.4063,-29.1750,182.3759,13.7407,7.5529,
8.412283,-0.4161,-0.4063,2.9404,-4.1435,1.8419,2.0149,-0.4423,-0.3530,-0.4109,-11.1000,-28.4063,-29.1750,182.3759,13.7407,7.5529,
8.420999,-0.4161,-0.4063,2.9404,-4.1435,1.8419,2.0149,-0.4423,-0.3530,-0.4109,-8.1188,-36.2438,-26.3438,182.3759,13.7407,7.5529,
8.433980,-0.4161,-0.4063,2.9404,-4.1435,1.8419,2.0149,-0.3733,-0.4184,-0.6311,-8.1188,-36.2438,-26.3438,182.3759,13.7407,7.5529,
8.436648,-0.4161,-0.4063,2.9404,11.1926,5.3581,11.8996,-0.3733,-0.4184,-0.6311,-8.1188,-36.2438,-26.3438,182.3759,13.7407,7.5529,
8.438884,-0.4161,-0.4063,2.9404,11.1926,5.3581,11.8996,-0.3733,-0.4184,-0.6311,-8.1188,-36.2438,-26.3438,181.9724,14.3268,8.2376,
8.474716,1.0868,0.2626,1.9410,11.1926,5.3581,11.8996,-0.3733,-0.4184,-0.6311,-8.1188,-36.2438,-26.3438,181.9724,14.3268,8.2376,
8.485424,-0.5075,0.0823,0.6643,11.1926,5.3581,11.8996,-0.3733,-0.4184,-0.6311,-8.1188,-36.2438,-26.3438,181.9724,14.3268,8.2376,
8.494476,-1.0486,0.0759,0.3545,11.1926,5.3581,11.8996,-0.3733,-0.4184,-0.6311,-8.1188,-36.2438,-26.3438,181.9724,14.3268,8.2376,
8.503082,0.1155,-0.0120,2.2781,11.1926,5.3581,11.8996,-0.3733,-0.4184,-0.6311,-8.1188,-36.2438,-26.3438,181.9724,14.3268,8.2376,
8.508222,0.1155,-0.0120,2.2781,11.1926,5.3581,11.8996,-0.3733,-0.4184,-0.6311,-5.0063,-41.7750,-24.4125,181.9724,14.3268,8.2376,
8.512168,0.1155,-0.0120,2.2781,2.8560,1.9688,22.5678,-0.3733,-0.4184,-0.6311,-5.0063,-41.7750,-24.4125,181.9724,14.3268,8.2376,
8.516634,0.1155,-0.0120,2.2781,2.8560,1.9688,22.5678,-0.3733,-0.4184,-0.6311,-5.0063,-41.7750,-24.4125,181.8239,14.8409,9.2568,
8.521275,0.1155,-0.0120,2.2781,2.8560,1.9688,22.5678,-0.2236,-0.3781,-0.6519,-5.0063,-41.7750,-24.4125,181.8239,14.8409,9.2568,
8.551944,0.5584,0.0078,2.0907,2.8560,1.9688,22.5678,-0.2236,-0.3781,-0.6519,-5.0063,-41.7750,-24.4125,181.8239,14.8409,9.2568,
8.554654,-0.0546,0.0828,0.7656,2.8560,1.9688,22.5678,-0.2236,-0.3781,-0.6519,-5.0063,-41.7750,-24.4125,181.8239,14.8409,9.2568,
8.556698,0.2545,0.0405,0.9909,2.8560,1.9688,22.5678,-0.2236,-0.3781,-0.6519,-5.0063,-41.7750,-24.4125,181.8239,14.8409,9.2568,
8.558758,-0.0619,0.0183,1.4856,2.8560,1.9688,22.5678,-0.2236,-0.3781,-0.6519,-5.0063,-41.7750,-24.4125,181.8239,14.8409,9.2568,
8.560998,-0.0619,0.0183,1.4856,2.8560,1.9688,22.5678,-0.2236,-0.3781,-0.6519,-2.2500,-45.0563,-23.4563,181.8239,14.8409,9.2568,
8.565668,-0.0619,0.0183,1.4856,2.8560,1.9688,22.5678,-0.0153,-0.2543,-0.5804,-2.2500,-45.0563,-23.4563,181.8239,14.8409,9.2568,
8.567875,-0.0619,0.0183,1.4856,-0.9900,2.5807,6.2968,-0.0153,-0.2543,-0.5804,-2.2500,-45.0563,-23.4563,181.8239,14.8409,9.2568,
8.570048,-0.0619,0.0183,1.4856,-0.9900,2.5807,6.2968,-0.0153,-0.2543,-0.5804,-2.2500,-45.0563,-23.4563,181.7559,15.0236,10.1705,
8.629652,-0.0619,0.0183,1.4856,-0.9900,2.5807,6.2968,-0.0153,-0.2543,-0.5804,-0.1875,-46.5375,-23.1750,181.7559,15.0236,10.1705,
8.633229,0.0395,0.0339,1.1055,-0.9900,2.5807,6.2968,-0.0153,-0.2543,-0.5804,-0.1875,-46.5375,-23.1750,181.7559,15.0236,10.1705,
8.635354,0.0195,0.0315,1.0913,-0.9900,2.5807,6.2968,-0.0153,-0.2543,-0.5804,-0.1875,-46.5375,-23.1750,181.7559,15.0236,10.1705,
