
time,gFx,gFy,gFz,ax,ay,az,wx,wy,wz,Bx,By,Bz,Azimuth,Pitch,Roll,
0.112293,0.1367,0.2912,1.0673,0.0000,0.0000,0.0000,0.0000,0.0000,0.0000,0.0000,0.0000,0.0000,0.0000,0.0000,0.0000,
0.114787,0.1245,0.2685,0.9938,0.0000,0.0000,0.0000,0.0000,0.0000,0.0000,0.0000,0.0000,0.0000,0.0000,0.0000,0.0000,
0.115755,0.0202,0.2188,0.9417,0.0000,0.0000,0.0000,0.0000,0.0000,0.0000,0.0000,0.0000,0.0000,0.0000,0.0000,0.0000,
0.116733,-0.0115,0.1912,0.8673,0.0000,0.0000,0.0000,0.0000,0.0000,0.0000,0.0000,0.0000,0.0000,0.0000,0.0000,0.0000,
0.117769,-0.1127,0.0823,0.8111,0.0000,0.0000,0.0000,0.0000,0.0000,0.0000,0.0000,0.0000,0.0000,0.0000,0.0000,0.0000,
0.129897,-0.1127,0.0823,0.8111,0.0000,0.0000,0.0000,0.0000,0.0000,0.0000,12.8063,-45.2250,14.7563,0.0000,0.0000,0.0000,
0.161173,-0.1127,0.0823,0.8111,0.0000,0.0000,0.0000,-0.0046,-0.0017,0.0044,12.8063,-45.2250,14.7563,0.0000,0.0000,0.0000,
0.163038,-0.1127,0.0823,0.8111,0.0000,0.0000,0.0000,-0.0046,-0.0017,0.0044,12.8063,-45.2250,14.7563,150.3674,-21.1053,0.6987,
0.164033,-0.1127,0.0823,0.8111,-0.8848,-2.3985,-1.2479,-0.0046,-0.0017,0.0044,12.8063,-45.2250,14.7563,150.3674,-21.1053,0.6987,
0.200157,-0.1127,0.0823,0.8111,-0.8848,-2.3985,-1.2479,-0.0046,-0.0017,0.0044,-15.6563,-36.4875,-8.6063,150.3674,-21.1053,0.6987,
0.209261,-0.2688,-0.0172,0.8281,-0.8848,-2.3985,-1.2479,-0.0046,-0.0017,0.0044,-15.6563,-36.4875,-8.6063,150.3674,-21.1053,0.6987,
0.211518,0.1084,0.1656,0.9403,-0.8848,-2.3985,-1.2479,-0.0046,-0.0017,0.0044,-15.6563,-36.4875,-8.6063,150.3674,-21.1053,0.6987,
0.213199,0.3512,0.2396,1.0876,-0.8848,-2.3985,-1.2479,-0.0046,-0.0017,0.0044,-15.6563,-36.4875,-8.6063,150.3674,-21.1053,0.6987,
0.214680,0.1292,0.2125,1.0309,-0.8848,-2.3985,-1.2479,-0.0046,-0.0017,0.0044,-15.6563,-36.4875,-8.6063,150.3674,-21.1053,0.6987,
0.215645,-0.0382,0.1690,0.9427,-0.8848,-2.3985,-1.2479,-0.0046,-0.0017,0.0044,-15.6563,-36.4875,-8.6063,150.3674,-21.1053,0.6987,
0.226462,-0.0382,0.1690,0.9427,-0.8848,-2.3985,-1.2479,-0.0020,0.0031,-0.0005,-15.6563,-36.4875,-8.6063,150.3674,-21.1053,0.6987,
0.227892,-0.0382,0.1690,0.9427,3.2875,-1.0581,1.6426,-0.0020,0.0031,-0.0005,-15.6563,-36.4875,-8.6063,150.3674,-21.1053,0.6987,
0.228912,-0.0382,0.1690,0.9427,3.2875,-1.0581,1.6426,-0.0020,0.0031,-0.0005,-15.6563,-36.4875,-8.6063,150.3674,-21.1053,0.6987,
0.270947,-0.0382,0.1690,0.9427,3.2875,-1.0581,1.6426,-0.0020,0.0031,-0.0005,-15.3563,-36.9000,-8.4188,150.3674,-21.1053,0.6987,
0.293362,-0.0382,0.1690,0.9427,3.2875,-1.0581,1.6426,-0.0020,0.0031,-0.0005,-15.3563,-36.9000,-8.4188,150.6371,-20.9711,1.0477,
0.296066,-0.0382,0.1690,0.9427,-0.0794,-0.1218,-2.5479,-0.0020,0.0031,-0.0005,-15.3563,-36.9000,-8.4188,150.6371,-20.9711,1.0477,
0.297798,-0.0382,0.1690,0.9427,-0.0794,-0.1218,-2.5479,-0.0002,-0.0022,0.0034,-15.3563,-36.9000,-8.4188,150.6371,-20.9711,1.0477,
0.307107,-0.0629,0.3085,0.6503,-0.0794,-0.1218,-2.5479,-0.0002,-0.0022,0.0034,-15.3563,-36.9000,-8.4188,150.6371,-20.9711,1.0477,
0.308817,0.0378,0.3307,0.6965,-0.0794,-0.1218,-2.5479,-0.0002,-0.0022,0.0034,-15.3563,-36.9000,-8.4188,150.6371,-20.9711,1.0477,
0.309851,0.1497,0.2609,0.8521,-0.0794,-0.1218,-2.5479,-0.0002,-0.0022,0.0034,-15.3563,-36.9000,-8.4188,150.6371,-20.9711,1.0477,
0.310916,0.1235,0.1680,0.9591,-0.0794,-0.1218,-2.5479,-0.0002,-0.0022,0.0034,-15.3563,-36.9000,-8.4188,150.6371,-20.9711,1.0477,
0.311882,0.1619,0.1558,0.9310,-0.0794,-0.1218,-2.5479,-0.0002,-0.0022,0.0034,-15.3563,-36.9000,-8.4188,150.6371,-20.9711,1.0477,
0.340390,0.1619,0.1558,0.9310,-0.0794,-0.1218,-2.5479,-0.0002,-0.0022,0.0034,-14.8688,-37.2188,-8.4000,150.6371,-20.9711,1.0477,
0.360359,0.1619,0.1558,0.9310,-0.0794,-0.1218,-2.5479,-0.0001,0.0022,-0.0008,-14.8688,-37.2188,-8.4000,150.6371,-20.9711,1.0477,
0.362019,0.1619,0.1558,0.9310,1.7076,-1.9055,-0.3381,-0.0001,0.0022,-0.0008,-14.8688,-37.2188,-8.4000,150.6371,-20.9711,1.0477,
0.363232,0.1619,0.1558,0.9310,1.7076,-1.9055,-0.3381,-0.0001,0.0022,-0.0008,-14.8688,-37.2188,-8.4000,150.6371,-20.9711,1.0477,
0.406216,0.2279,0.1312,0.6970,1.7076,-1.9055,-0.3381,-0.0001,0.0022,-0.0008,-14.8688,-37.2188,-8.4000,150.6371,-20.9711,1.0477,
0.408891,0.1323,0.2003,0.7424,1.7076,-1.9055,-0.3381,-0.0001,0.0022,-0.0008,-14.8688,-37.2188,-8.4000,150.6371,-20.9711,1.0477,
0.410945,0.0432,0.2575,0.9605,1.7076,-1.9055,-0.3381,-0.0001,0.0022,-0.0008,-14.8688,-37.2188,-8.4000,150.6371,-20.9711,1.0477,
0.412306,-0.0638,0.1018,0.9327,1.7076,-1.9055,-0.3381,-0.0001,0.0022,-0.0008,-14.8688,-37.2188,-8.4000,150.6371,-20.9711,1.0477,
0.413664,-0.0944,0.2440,1.1641,1.7076,-1.9055,-0.3381,-0.0001,0.0022,-0.0008,-14.8688,-37.2188,-8.4000,150.6371,-20.9711,1.0477,
0.415196,-0.0944,0.2440,1.1641,1.7076,-1.9055,-0.3381,-0.0001,0.0022,-0.0008,-13.8000,-37.6500,-8.3438,150.6371,-20.9711,1.0477,
0.426827,-0.0944,0.2440,1.1641,1.7076,-1.9055,-0.3381,0.0471,0.1508,0.0178,-13.8000,-37.6500,-8.3438,150.6371,-20.9711,1.0477,
0.429869,-0.0944,0.2440,1.1641,0.1237,-2.3159,-0.1638,0.0471,0.1508,0.0178,-13.8000,-37.6500,-8.3438,150.6371,-20.9711,1.0477,
0.431008,-0.0944,0.2440,1.1641,0.1237,-2.3159,-0.1638,0.0471,0.1508,0.0178,-13.8000,-37.6500,-8.3438,151.2151,-20.4976,0.8406,
0.480674,-0.0944,0.2440,1.1641,0.1237,-2.3159,-0.1638,0.0471,0.1508,0.0178,-12.6375,-38.1000,-8.0813,151.2151,-20.4976,0.8406,
0.493993,-0.0944,0.2440,1.1641,-1.9925,-1.2627,0.2252,0.0471,0.1508,0.0178,-12.6375,-38.1000,-8.0813,151.2151,-20.4976,0.8406,
0.496484,-0.0944,0.2440,1.1641,-1.9925,-1.2627,0.2252,0.0530,0.2177,0.0145,-12.6375,-38.1000,-8.0813,151.2151,-20.4976,0.8406,
0.498353,-0.0944,0.2440,1.1641,-1.9925,-1.2627,0.2252,0.0530,0.2177,0.0145,-12.6375,-38.1000,-8.0813,151.2151,-20.4976,0.8406,
0.503705,-0.1295,0.2215,1.0906,-1.9925,-1.2627,0.2252,0.0530,0.2177,0.0145,-12.6375,-38.1000,-8.0813,151.2151,-20.4976,0.8406,
0.505461,-0.1818,0.2088,1.0053,-1.9925,-1.2627,0.2252,0.0530,0.2177,0.0145,-12.6375,-38.1000,-8.0813,151.2151,-20.4976,0.8406,
0.506548,-0.2053,0.2892,0.7925,-1.9925,-1.2627,0.2252,0.0530,0.2177,0.0145,-12.6375,-38.1000,-8.0813,151.2151,-20.4976,0.8406,
0.507536,-0.0753,0.3007,0.6640,-1.9925,-1.2627,0.2252,0.0530,0.2177,0.0145,-12.6375,-38.1000,-8.0813,151.2151,-20.4976,0.8406,
0.508484,-0.0455,0.2284,0.5800,-1.9925,-1.2627,0.2252,0.0530,0.2177,0.0145,-12.6375,-38.1000,-8.0813,151.2151,-20.4976,0.8406,
0.550201,-0.0455,0.2284,0.5800,-1.9925,-1.2627,0.2252,0.0530,0.2177,0.0145,-11.4563,-38.3813,-8.0250,151.2151,-20.4976,0.8406,
0.560252,-0.0455,0.2284,0.5800,-1.9925,-1.2627,0.2252,0.0488,0.2708,-0.0064,-11.4563,-38.3813,-8.0250,151.2151,-20.4976,0.8406,
0.561890,-0.0455,0.2284,0.5800,-1.4964,-0.9226,-0.9438,0.0488,0.2708,-0.0064,-11.4563,-38.3813,-8.0250,151.2151,-20.4976,0.8406,
0.563336,-0.0455,0.2284,0.5800,-1.4964,-0.9226,-0.9438,0.0488,0.2708,-0.0064,-11.4563,-38.3813,-8.0250,152.1640,-19.8707,0.4025,
0.602776,-0.1845,0.2230,0.9071,-1.4964,-0.9226,-0.9438,0.0488,0.2708,-0.0064,-11.4563,-38.3813,-8.0250,152.1640,-19.8707,0.4025,
0.606132,-0.1921,0.1695,1.0906,-1.4964,-0.9226,-0.9438,0.0488,0.2708,-0.0064,-11.4563,-38.3813,-8.0250,152.1640,-19.8707,0.4025,
0.607475,-0.1249,0.1827,0.9750,-1.4964,-0.9226,-0.9438,0.0488,0.2708,-0.0064,-11.4563,-38.3813,-8.0250,152.1640,-19.8707,0.4025,
0.608482,-0.1181,0.2059,0.8829,-1.4964,-0.9226,-0.9438,0.0488,0.2708,-0.0064,-11.4563,-38.3813,-8.0250,152.1640,-19.8707,0.4025,
0.609423,-0.1770,0.1834,0.8785,-1.4964,-0.9226,-0.9438,0.0488,0.2708,-0.0064,-11.4563,-38.3813,-8.0250,152.1640,-19.8707,0.4025,
0.620838,-0.1770,0.1834,0.8785,-1.4964,-0.9226,-0.9438,0.0488,0.2708,-0.0064,-10.2750,-38.4375,-8.2125,152.1640,-19.8707,0.4025,
0.626674,-0.1770,0.1834,0.8785,-1.4964,-0.9226,-0.9438,0.0334,0.3070,-0.0448,-10.2750,-38.4375,-8.2125,152.1640,-19.8707,0.4025,
0.627703,-0.1770,0.1834,0.8785,-1.3159,-1.2565,-0.7943,0.0334,0.3070,-0.0448,-10.2750,-38.4375,-8.2125,152.1640,-19.8707,0.4025,
0.628708,-0.1770,0.1834,0.8785,-1.3159,-1.2565,-0.7943,0.0334,0.3070,-0.0448,-10.2750,-38.4375,-8.2125,152.7927,-19.4763,0.1589,
0.690492,-0.1770,0.1834,0.8785,-1.3159,-1.2565,-0.7943,0.0334,0.3070,-0.0448,-8.3813,-38.6625,-8.5500,152.7927,-19.4763,0.1589,
0.693524,-0.1770,0.1834,0.8785,-0.5393,-2.4634,-1.9061,0.0334,0.3070,-0.0448,-8.3813,-38.6625,-8.5500,152.7927,-19.4763,0.1589,
0.694953,-0.1770,0.1834,0.8785,-0.5393,-2.4634,-1.9061,0.0334,0.3070,-0.0448,-8.3813,-38.6625,-8.5500,153.4736,-19.1216,-0.1256,
0.695958,-0.1770,0.1834,0.8785,-0.5393,-2.4634,-1.9061,0.0079,0.3248,-0.0926,-8.3813,-38.6625,-8.5500,153.4736,-19.1216,-0.1256,
0.700819,-0.1459,0.1627,0.8897,-0.5393,-2.4634,-1.9061,0.0079,0.3248,-0.0926,-8.3813,-38.6625,-8.5500,153.4736,-19.1216,-0.1256,
0.701857,-0.0795,0.1077,0.7935,-0.5393,-2.4634,-1.9061,0.0079,0.3248,-0.0926,-8.3813,-38.6625,-8.5500,153.4736,-19.1216,-0.1256,
0.703008,-0.0807,0.0735,0.7470,-0.5393,-2.4634,-1.9061,0.0079,0.3248,-0.0926,-8.3813,-38.6625,-8.5500,153.4736,-19.1216,-0.1256,
0.704098,-0.0919,0.0779,0.8291,-0.5393,-2.4634,-1.9061,0.0079,0.3248,-0.0926,-8.3813,-38.6625,-8.5500,153.4736,-19.1216,-0.1256,
0.705133,-0.0289,0.1157,0.7214,-0.5393,-2.4634,-1.9061,0.0079,0.3248,-0.0926,-8.3813,-38.6625,-8.5500,153.4736,-19.1216,-0.1256,
0.760999,-0.0289,0.1157,0.7214,-0.5393,-2.4634,-1.9061,-0.0234,0.3211,-0.1424,-8.3813,-38.6625,-8.5500,153.4736,-19.1216,-0.1256,
0.763526,-0.0289,0.1157,0.7214,-0.2034,-3.5015,-2.5134,-0.0234,0.3211,-0.1424,-8.3813,-38.6625,-8.5500,153.4736,-19.1216,-0.1256,
0.765279,-0.0289,0.1157,0.7214,-0.2034,-3.5015,-2.5134,-0.0234,0.3211,-0.1424,-8.3813,-38.6625,-8.5500,154.2722,-18.7021,-0.4099,
0.766778,-0.0289,0.1157,0.7214,-0.2034,-3.5015,-2.5134,-0.0234,0.3211,-0.1424,-6.0188,-38.8688,-8.9625,154.2722,-18.7021,-0.4099,
0.799872,0.0358,0.0181,0.6823,-0.2034,-3.5015,-2.5134,-0.0234,0.3211,-0.1424,-6.0188,-38.8688,-8.9625,154.2722,-18.7021,-0.4099,
0.802650,-0.0570,0.0811,0.5695,-0.2034,-3.5015,-2.5134,-0.0234,0.3211,-0.1424,-6.0188,-38.8688,-8.9625,154.2722,-18.7021,-0.4099,
0.803796,-0.0978,-0.0184,0.7026,-0.2034,-3.5015,-2.5134,-0.0234,0.3211,-0.1424,-6.0188,-38.8688,-8.9625,154.2722,-18.7021,-0.4099,
0.804887,0.1087,-0.0093,0.9085,-0.2034,-3.5015,-2.5134,-0.0234,0.3211,-0.1424,-6.0188,-38.8688,-8.9625,154.2722,-18.7021,-0.4099,
0.805898,-0.2561,0.0171,1.2980,-0.2034,-3.5015,-2.5134,-0.0234,0.3211,-0.1424,-6.0188,-38.8688,-8.9625,154.2722,-18.7021,-0.4099,
0.827543,-0.2561,0.0171,1.2980,-0.2034,-3.5015,-2.5134,-0.0630,0.2904,-0.1959,-6.0188,-38.8688,-8.9625,154.2722,-18.7021,-0.4099,
0.829296,-0.2561,0.0171,1.2980,-0.5812,-3.0197,1.7002,-0.0630,0.2904,-0.1959,-6.0188,-38.8688,-8.9625,154.2722,-18.7021,-0.4099,
0.830453,-0.2561,0.0171,1.2980,-0.5812,-3.0197,1.7002,-0.0630,0.2904,-0.1959,-6.0188,-38.8688,-8.9625,155.1031,-18.1544,-0.8321,
0.831516,-0.2561,0.0171,1.2980,-0.5812,-3.0197,1.7002,-0.0630,0.2904,-0.1959,-3.3000,-38.5312,-9.7875,155.1031,-18.1544,-0.8321,
0.893613,-0.2561,0.0171,1.2980,-0.5812,-3.0197,1.7002,-0.1237,0.2441,-0.2563,-3.3000,-38.5312,-9.7875,155.1031,-18.1544,-0.8321,
0.896667,-0.2561,0.0171,1.2980,-1.3178,-3.2530,2.3953,-0.1237,0.2441,-0.2563,-3.3000,-38.5312,-9.7875,155.1031,-18.1544,-0.8321,
0.898738,-0.2561,0.0171,1.2980,-1.3178,-3.2530,2.3953,-0.1237,0.2441,-0.2563,-3.3000,-38.5312,-9.7875,156.0902,-17.4141,-1.2288,
0.899758,-0.6743,-0.1198,1.4182,-1.3178,-3.2530,2.3953,-0.1237,0.2441,-0.2563,-3.3000,-38.5312,-9.7875,156.0902,-17.4141,-1.2288,
0.900730,-0.2808,-0.0811,0.9557,-1.3178,-3.2530,2.3953,-0.1237,0.2441,-0.2563,-3.3000,-38.5312,-9.7875,156.0902,-17.4141,-1.2288,
0.901727,-0.1733,-0.0120,1.1824,-1.3178,-3.2530,2.3953,-0.1237,0.2441,-0.2563,-3.3000,-38.5312,-9.7875,156.0902,-17.4141,-1.2288,
0.902789,-0.0076,-0.0677,1.2919,-1.3178,-3.2530,2.3953,-0.1237,0.2441,-0.2563,-3.3000,-38.5312,-9.7875,156.0902,-17.4141,-1.2288,
0.903847,-0.1454,-0.0499,1.6332,-1.3178,-3.2530,2.3953,-0.1237,0.2441,-0.2563,-3.3000,-38.5312,-9.7875,156.0902,-17.4141,-1.2288,
0.904841,-0.1454,-0.0499,1.6332,-1.3178,-3.2530,2.3953,-0.1237,0.2441,-0.2563,-0.3000,-38.1938,-10.4438,156.0902,-17.4141,-1.2288,
0.960448,-0.1454,-0.0499,1.6332,-1.3178,-3.2530,2.3953,-0.1237,0.2441,-0.2563,-0.3000,-38.1938,-10.4438,157.1937,-16.6336,-1.5897,
0.963671,-0.1454,-0.0499,1.6332,-3.2001,-2.5407,-9.6851,-0.1237,0.2441,-0.2563,-0.3000,-38.1938,-10.4438,157.1937,-16.6336,-1.5897,
0.966049,-0.1454,-0.0499,1.6332,-3.2001,-2.5407,-9.6851,-0.2096,0.2076,-0.3199,-0.3000,-38.1938,-10.4438,157.1937,-16.6336,-1.5897,
0.973265,-0.1454,-0.0499,1.6332,-3.2001,-2.5407,-9.6851,-0.2096,0.2076,-0.3199,2.3813,-37.5938,-11.0625,157.1937,-16.6336,-1.5897,
0.995570,-0.3694,-0.0164,0.6408,-3.2001,-2.5407,-9.6851,-0.2096,0.2076,-0.3199,2.3813,-37.5938,-11.0625,157.1937,-16.6336,-1.5897,
0.998324,-0.1982,0.0747,0.4749,-3.2001,-2.5407,-9.6851,-0.2096,0.2076,-0.3199,2.3813,-37.5938,-11.0625,157.1937,-16.6336,-1.5897,
0.999761,-0.1427,-0.0176,1.0192,-3.2001,-2.5407,-9.6851,-0.2096,0.2076,-0.3199,2.3813,-37.5938,-11.0625,157.1937,-16.6336,-1.5897,
1.001645,-0.1364,-0.0670,1.0967,-3.2001,-2.5407,-9.6851,-0.2096,0.2076,-0.3199,2.3813,-37.5938,-11.0625,157.1937,-16.6336,-1.5897,
1.003587,0.1028,-0.0653,0.9755,-3.2001,-2.5407,-9.6851,-0.2096,0.2076,-0.3199,2.3813,-37.5938,-11.0625,157.1937,-16.6336,-1.5897,
1.026981,0.1028,-0.0653,0.9755,-3.2001,-2.5407,-9.6851,-0.2903,0.1974,-0.3779,2.3813,-37.5938,-11.0625,157.1937,-16.6336,-1.5897,
1.028972,0.1028,-0.0653,0.9755,0.2990,-3.4266,0.6451,-0.2903,0.1974,-0.3779,2.3813,-37.5938,-11.0625,157.1937,-16.6336,-1.5897,
1.030490,0.1028,-0.0653,0.9755,0.2990,-3.4266,0.6451,-0.2903,0.1974,-0.3779,2.3813,-37.5938,-11.0625,158.3614,-15.8216,-2.0028,
1.039282,0.1028,-0.0653,0.9755,0.2990,-3.4266,0.6451,-0.2903,0.1974,-0.3779,4.9500,-36.7125,-12.1875,158.3614,-15.8216,-2.0028,
1.092735,0.1028,-0.0653,0.9755,0.2990,-3.4266,0.6451,-0.2903,0.1974,-0.3779,4.9500,-36.7125,-12.1875,159.6165,-14.8645,-2.4513,
1.095859,0.1028,-0.0653,0.9755,2.2911,-3.6798,5.7713,-0.2903,0.1974,-0.3779,4.9500,-36.7125,-12.1875,159.6165,-14.8645,-2.4513,
1.098238,0.1028,-0.0653,0.9755,2.2911,-3.6798,5.7713,-0.3316,0.2059,-0.4244,4.9500,-36.7125,-12.1875,159.6165,-14.8645,-2.4513,
1.100469,-0.2993,-0.0899,1.0387,2.2911,-3.6798,5.7713,-0.3316,0.2059,-0.4244,4.9500,-36.7125,-12.1875,159.6165,-14.8645,-2.4513,
1.102645,-0.3963,-0.0753,0.8487,2.2911,-3.6798,5.7713,-0.3316,0.2059,-0.4244,4.9500,-36.7125,-12.1875,159.6165,-14.8645,-2.4513,
1.104747,-0.1466,-0.0635,1.4995,2.2911,-3.6798,5.7713,-0.3316,0.2059,-0.4244,4.9500,-36.7125,-12.1875,159.6165,-14.8645,-2.4513,
1.106995,0.1492,-0.1552,1.4682,2.2911,-3.6798,5.7713,-0.3316,0.2059,-0.4244,4.9500,-36.7125,-12.1875,159.6165,-14.8645,-2.4513,
1.109103,-0.0496,-0.1005,1.1396,2.2911,-3.6798,5.7713,-0.3316,0.2059,-0.4244,4.9500,-36.7125,-12.1875,159.6165,-14.8645,-2.4513,
1.111285,-0.0496,-0.1005,1.1396,2.2911,-3.6798,5.7713,-0.3316,0.2059,-0.4244,7.1250,-35.4938,-13.5750,159.6165,-14.8645,-2.4513,
1.160227,-0.0496,-0.1005,1.1396,2.5864,-2.9838,-0.3643,-0.3316,0.2059,-0.4244,7.1250,-35.4938,-13.5750,159.6165,-14.8645,-2.4513,
1.163357,-0.0496,-0.1005,1.1396,2.5864,-2.9838,-0.3643,-0.3316,0.2059,-0.4244,7.1250,-35.4938,-13.5750,160.9670,-13.8475,-2.8623,
1.165633,-0.0496,-0.1005,1.1396,2.5864,-2.9838,-0.3643,-0.3350,0.2058,-0.4621,7.1250,-35.4938,-13.5750,160.9670,-13.8475,-2.8623,
1.180731,-0.0496,-0.1005,1.1396,2.5864,-2.9838,-0.3643,-0.3350,0.2058,-0.4621,9.1125,-34.4625,-14.6438,160.9670,-13.8475,-2.8623,
1.192515,0.0231,0.0833,0.9420,2.5864,-2.9838,-0.3643,-0.3350,0.2058,-0.4621,9.1125,-34.4625,-14.6438,160.9670,-13.8475,-2.8623,
1.196822,0.1859,-0.0306,0.8941,2.5864,-2.9838,-0.3643,-0.3350,0.2058,-0.4621,9.1125,-34.4625,-14.6438,160.9670,-13.8475,-2.8623,
1.199957,0.0517,-0.1193,1.2696,2.5864,-2.9838,-0.3643,-0.3350,0.2058,-0.4621,9.1125,-34.4625,-14.6438,160.9670,-13.8475,-2.8623,
1.204153,0.0075,0.0584,1.2975,2.5864,-2.9838,-0.3643,-0.3350,0.2058,-0.4621,9.1125,-34.4625,-14.6438,160.9670,-13.8475,-2.8623,
1.207949,-0.0951,0.0947,1.1758,2.5864,-2.9838,-0.3643,-0.3350,0.2058,-0.4621,9.1125,-34.4625,-14.6438,160.9670,-13.8475,-2.8623,
1.227274,-0.0951,0.0947,1.1758,2.5864,-2.9838,-0.3643,-0.3236,0.1707,-0.4968,9.1125,-34.4625,-14.6438,160.9670,-13.8475,-2.8623,
1.234505,-0.0951,0.0947,1.1758,-0.1901,-2.1862,2.2147,-0.3236,0.1707,-0.4968,9.1125,-34.4625,-14.6438,160.9670,-13.8475,-2.8623,
1.240115,-0.0951,0.0947,1.1758,-0.1901,-2.1862,2.2147,-0.3236,0.1707,-0.4968,9.1125,-34.4625,-14.6438,162.5032,-12.9120,-3.0349,
1.250915,-0.0951,0.0947,1.1758,-0.1901,-2.1862,2.2147,-0.3236,0.1707,-0.4968,10.9875,-33.2812,-15.6750,162.5032,-12.9120,-3.0349,
1.289907,-0.0848,-0.0206,1.0644,-0.1901,-2.1862,2.2147,-0.3236,0.1707,-0.4968,10.9875,-33.2812,-15.6750,162.5032,-12.9120,-3.0349,
1.293094,0.0439,-0.0811,1.0390,-0.1901,-2.1862,2.2147,-0.3236,0.1707,-0.4968,10.9875,-33.2812,-15.6750,162.5032,-12.9120,-3.0349,
1.295415,0.0754,-0.0858,0.8308,-0.1901,-2.1862,2.2147,-0.3236,0.1707,-0.4968,10.9875,-33.2812,-15.6750,162.5032,-12.9120,-3.0349,
1.297450,0.2663,-0.0020,0.9325,-0.1901,-2.1862,2.2147,-0.3236,0.1707,-0.4968,10.9875,-33.2812,-15.6750,162.5032,-12.9120,-3.0349,
1.299653,0.0522,0.0603,1.0693,-0.1901,-2.1862,2.2147,-0.3236,0.1707,-0.4968,10.9875,-33.2812,-15.6750,162.5032,-12.9120,-3.0349,
1.301840,0.0522,0.0603,1.0693,-0.1901,-2.1862,2.2147,-0.3054,0.1025,-0.5279,10.9875,-33.2812,-15.6750,162.5032,-12.9120,-3.0349,
1.304132,0.0522,0.0603,1.0693,2.2282,-1.1565,0.0445,-0.3054,0.1025,-0.5279,10.9875,-33.2812,-15.6750,162.5032,-12.9120,-3.0349,
1.306373,0.0522,0.0603,1.0693,2.2282,-1.1565,0.0445,-0.3054,0.1025,-0.5279,10.9875,-33.2812,-15.6750,164.0968,-12.0795,-3.1476,
1.320078,0.0522,0.0603,1.0693,2.2282,-1.1565,0.0445,-0.3054,0.1025,-0.5279,12.6563,-32.1375,-16.5188,164.0968,-12.0795,-3.1476,
1.361215,0.0522,0.0603,1.0693,2.2282,-1.1565,0.0445,-0.2676,0.0286,-0.5506,12.6563,-32.1375,-16.5188,164.0968,-12.0795,-3.1476,
1.371902,0.0522,0.0603,1.0693,1.3580,2.3894,-3.0436,-0.2676,0.0286,-0.5506,12.6563,-32.1375,-16.5188,164.0968,-12.0795,-3.1476,
1.379966,0.0522,0.0603,1.0693,1.3580,2.3894,-3.0436,-0.2676,0.0286,-0.5506,12.6563,-32.1375,-16.5188,165.7308,-11.3794,-3.2393,
1.389355,0.0598,0.3833,0.8020,1.3580,2.3894,-3.0436,-0.2676,0.0286,-0.5506,12.6563,-32.1375,-16.5188,165.7308,-11.3794,-3.2393,
1.397428,-0.0164,0.4659,0.4383,1.3580,2.3894,-3.0436,-0.2676,0.0286,-0.5506,12.6563,-32.1375,-16.5188,165.7308,-11.3794,-3.2393,
1.404171,0.0395,0.4277,0.7686,1.3580,2.3894,-3.0436,-0.2676,0.0286,-0.5506,12.6563,-32.1375,-16.5188,165.7308,-11.3794,-3.2393,
1.409780,-0.0306,0.3415,0.8936,1.3580,2.3894,-3.0436,-0.2676,0.0286,-0.5506,12.6563,-32.1375,-16.5188,165.7308,-11.3794,-3.2393,
1.413368,0.0662,0.2917,0.9674,1.3580,2.3894,-3.0436,-0.2676,0.0286,-0.5506,12.6563,-32.1375,-16.5188,165.7308,-11.3794,-3.2393,
1.417562,0.0662,0.2917,0.9674,1.3580,2.3894,-3.0436,-0.2676,0.0286,-0.5506,13.9500,-31.5563,-16.7812,165.7308,-11.3794,-3.2393,
1.427324,0.0662,0.2917,0.9674,1.3580,2.3894,-3.0436,-0.1995,-0.0294,-0.5682,13.9500,-31.5563,-16.7812,165.7308,-11.3794,-3.2393,
1.430041,0.0662,0.2917,0.9674,1.3580,2.3894,-3.0436,-0.1995,-0.0294,-0.5682,13.9500,-31.5563,-16.7812,167.5310,-10.7406,-3.1600,
1.432195,0.0662,0.2917,0.9674,1.8999,0.1404,-0.3167,-0.1995,-0.0294,-0.5682,13.9500,-31.5563,-16.7812,167.5310,-10.7406,-3.1600,
1.459692,0.0662,0.2917,0.9674,1.8999,0.1404,-0.3167,-0.1995,-0.0294,-0.5682,14.5875,-31.6500,-16.2750,167.5310,-10.7406,-3.1600,
1.486305,0.1194,0.2096,0.9801,1.8999,0.1404,-0.3167,-0.1995,-0.0294,-0.5682,14.5875,-31.6500,-16.2750,167.5310,-10.7406,-3.1600,
1.489128,0.0928,0.1348,0.9877,1.8999,0.1404,-0.3167,-0.1995,-0.0294,-0.5682,14.5875,-31.6500,-16.2750,167.5310,-10.7406,-3.1600,
1.491428,0.1864,0.1690,0.9049,1.8999,0.1404,-0.3167,-0.1995,-0.0294,-0.5682,14.5875,-31.6500,-16.2750,167.5310,-10.7406,-3.1600,
1.493542,0.2853,0.1688,1.0016,1.8999,0.1404,-0.3167,-0.1995,-0.0294,-0.5682,14.5875,-31.6500,-16.2750,167.5310,-10.7406,-3.1600,
1.495669,0.1993,0.1060,1.1711,1.8999,0.1404,-0.3167,-0.1995,-0.0294,-0.5682,14.5875,-31.6500,-16.2750,167.5310,-10.7406,-3.1600,
1.497840,0.1993,0.1060,1.1711,1.8999,0.1404,-0.3167,-0.1096,-0.0732,-0.5884,14.5875,-31.6500,-16.2750,167.5310,-10.7406,-3.1600,
1.500171,0.1993,0.1060,1.1711,2.6253,-0.7096,1.7389,-0.1096,-0.0732,-0.5884,14.5875,-31.6500,-16.2750,167.5310,-10.7406,-3.1600,
1.502436,0.1993,0.1060,1.1711,2.6253,-0.7096,1.7389,-0.1096,-0.0732,-0.5884,14.5875,-31.6500,-16.2750,169.4162,-10.2126,-3.0056,
1.530430,0.1993,0.1060,1.1711,2.6253,-0.7096,1.7389,-0.1096,-0.0732,-0.5884,15.1313,-31.4813,-13.2750,169.4162,-10.2126,-3.0056,
1.560171,0.1993,0.1060,1.1711,2.6253,-0.7096,1.7389,-0.1096,-0.0732,-0.5884,15.1313,-31.4813,-13.2750,171.3704,-9.8465,-2.7388,
1.563312,0.1993,0.1060,1.1711,4.2843,2.0523,3.6890,-0.1096,-0.0732,-0.5884,15.1313,-31.4813,-13.2750,171.3704,-9.8465,-2.7388,
1.565588,0.1993,0.1060,1.1711,4.2843,2.0523,3.6890,-0.0239,-0.1144,-0.6032,15.1313,-31.4813,-13.2750,171.3704,-9.8465,-2.7388,
1.584566,0.2052,0.1307,1.0207,4.2843,2.0523,3.6890,-0.0239,-0.1144,-0.6032,15.1313,-31.4813,-13.2750,171.3704,-9.8465,-2.7388,
1.588840,0.1790,0.1641,1.0619,4.2843,2.0523,3.6890,-0.0239,-0.1144,-0.6032,15.1313,-31.4813,-13.2750,171.3704,-9.8465,-2.7388,
1.592102,0.4214,0.3640,1.3751,4.2843,2.0523,3.6890,-0.0239,-0.1144,-0.6032,15.1313,-31.4813,-13.2750,171.3704,-9.8465,-2.7388,
1.595071,0.3891,0.4197,1.2618,4.2843,2.0523,3.6890,-0.0239,-0.1144,-0.6032,15.1313,-31.4813,-13.2750,171.3704,-9.8465,-2.7388,
1.599633,0.1720,0.4255,1.2586,4.2843,2.0523,3.6890,-0.0239,-0.1144,-0.6032,15.1313,-31.4813,-13.2750,171.3704,-9.8465,-2.7388,
1.604446,0.1720,0.4255,1.2586,4.2843,2.0523,3.6890,-0.0239,-0.1144,-0.6032,14.2688,-32.6625,-10.7812,171.3704,-9.8465,-2.7388,
1.626958,0.1720,0.4255,1.2586,4.2843,2.0523,3.6890,0.0468,-0.1600,-0.5869,14.2688,-32.6625,-10.7812,171.3704,-9.8465,-2.7388,
1.633587,0.1720,0.4255,1.2586,2.9464,3.5186,0.7036,0.0468,-0.1600,-0.5869,14.2688,-32.6625,-10.7812,171.3704,-9.8465,-2.7388,
1.640593,0.1720,0.4255,1.2586,2.9464,3.5186,0.7036,0.0468,-0.1600,-0.5869,14.2688,-32.6625,-10.7812,173.3295,-9.6955,-2.3910,
1.671805,0.1720,0.4255,1.2586,2.9464,3.5186,0.7036,0.0468,-0.1600,-0.5869,13.1250,-34.3125,-7.4063,173.3295,-9.6955,-2.3910,
1.683440,0.3075,0.4610,1.2796,2.9464,3.5186,0.7036,0.0468,-0.1600,-0.5869,13.1250,-34.3125,-7.4063,173.3295,-9.6955,-2.3910,
1.690367,0.2621,0.5673,1.0395,2.9464,3.5186,0.7036,0.0468,-0.1600,-0.5869,13.1250,-34.3125,-7.4063,173.3295,-9.6955,-2.3910,
1.697813,0.3087,0.6283,1.1216,2.9464,3.5186,0.7036,0.0468,-0.1600,-0.5869,13.1250,-34.3125,-7.4063,173.3295,-9.6955,-2.3910,
1.703030,0.3576,0.6449,1.0757,2.9464,3.5186,0.7036,0.0468,-0.1600,-0.5869,13.1250,-34.3125,-7.4063,173.3295,-9.6955,-2.3910,
1.708821,0.3918,0.6813,0.9083,2.9464,3.5186,0.7036,0.0468,-0.1600,-0.5869,13.1250,-34.3125,-7.4063,173.3295,-9.6955,-2.3910,
1.712056,0.3918,0.6813,0.9083,4.4288,5.4493,-0.9156,0.0468,-0.1600,-0.5869,13.1250,-34.3125,-7.4063,173.3295,-9.6955,-2.3910,
1.715447,0.3918,0.6813,0.9083,4.4288,5.4493,-0.9156,0.0468,-0.1600,-0.5869,13.1250,-34.3125,-7.4063,175.2751,-9.7718,-1.9318,
1.720407,0.3918,0.6813,0.9083,4.4288,5.4493,-0.9156,0.1310,-0.2131,-0.5265,13.1250,-34.3125,-7.4063,175.2751,-9.7718,-1.9318,
1.740594,0.3918,0.6813,0.9083,4.4288,5.4493,-0.9156,0.1310,-0.2131,-0.5265,11.7000,-35.9813,-3.7500,175.2751,-9.7718,-1.9318,
1.761441,0.3918,0.6813,0.9083,4.4288,5.4493,-0.9156,0.2579,-0.2685,-0.4345,11.7000,-35.9813,-3.7500,175.2751,-9.7718,-1.9318,
1.764332,0.3918,0.6813,0.9083,4.4288,5.4493,-0.9156,0.2579,-0.2685,-0.4345,11.7000,-35.9813,-3.7500,177.1725,-9.9583,-1.3683,
1.766654,0.3918,0.6813,0.9083,3.2120,5.1253,-2.2153,0.2579,-0.2685,-0.4345,11.7000,-35.9813,-3.7500,177.1725,-9.9583,-1.3683,
1.781579,0.4607,0.7390,0.9305,3.2120,5.1253,-2.2153,0.2579,-0.2685,-0.4345,11.7000,-35.9813,-3.7500,177.1725,-9.9583,-1.3683,
1.784324,0.3166,0.6677,1.0019,3.2120,5.1253,-2.2153,0.2579,-0.2685,-0.4345,11.7000,-35.9813,-3.7500,177.1725,-9.9583,-1.3683,
1.786527,0.4726,0.8726,0.8384,3.2120,5.1253,-2.2153,0.2579,-0.2685,-0.4345,11.7000,-35.9813,-3.7500,177.1725,-9.9583,-1.3683,
1.788697,0.3075,0.6806,0.7774,3.2120,5.1253,-2.2153,0.2579,-0.2685,-0.4345,11.7000,-35.9813,-3.7500,177.1725,-9.9583,-1.3683,
1.790870,0.4859,0.8572,0.7840,3.2120,5.1253,-2.2153,0.2579,-0.2685,-0.4345,11.7000,-35.9813,-3.7500,177.1725,-9.9583,-1.3683,
1.810442,0.4859,0.8572,0.7840,3.2120,5.1253,-2.2153,0.2579,-0.2685,-0.4345,10.1063,-37.8000,0.1500,177.1725,-9.9583,-1.3683,
1.826944,0.4859,0.8572,0.7840,3.2120,5.1253,-2.2153,0.4137,-0.3198,-0.3350,10.1063,-37.8000,0.1500,177.1725,-9.9583,-1.3683,
1.833158,0.4859,0.8572,0.7840,4.5681,5.4376,-2.8664,0.4137,-0.3198,-0.3350,10.1063,-37.8000,0.1500,177.1725,-9.9583,-1.3683,
1.840370,0.4859,0.8572,0.7840,4.5681,5.4376,-2.8664,0.4137,-0.3198,-0.3350,10.1063,-37.8000,0.1500,179.0070,-10.3481,-0.7025,
1.881251,0.4859,0.8572,0.7840,4.5681,5.4376,-2.8664,0.4137,-0.3198,-0.3350,8.4000,-39.7125,3.9938,179.0070,-10.3481,-0.7025,
1.890825,0.3782,0.7106,0.8030,4.5681,5.4376,-2.8664,0.4137,-0.3198,-0.3350,8.4000,-39.7125,3.9938,179.0070,-10.3481,-0.7025,
1.897528,0.4514,0.7536,0.7564,4.5681,5.4376,-2.8664,0.4137,-0.3198,-0.3350,8.4000,-39.7125,3.9938,179.0070,-10.3481,-0.7025,
1.904448,0.4820,0.6635,0.5719,4.5681,5.4376,-2.8664,0.4137,-0.3198,-0.3350,8.4000,-39.7125,3.9938,179.0070,-10.3481,-0.7025,
1.911471,0.4822,0.5673,0.5359,4.5681,5.4376,-2.8664,0.4137,-0.3198,-0.3350,8.4000,-39.7125,3.9938,179.0070,-10.3481,-0.7025,
1.916131,0.2633,0.7207,0.6266,4.5681,5.4376,-2.8664,0.4137,-0.3198,-0.3350,8.4000,-39.7125,3.9938,179.0070,-10.3481,-0.7025,
1.921377,0.2633,0.7207,0.6266,4.5681,5.4376,-2.8664,0.5530,-0.3590,-0.2447,8.4000,-39.7125,3.9938,179.0070,-10.3481,-0.7025,
1.927223,0.2633,0.7207,0.6266,2.4443,5.4016,-3.0154,0.5530,-0.3590,-0.2447,8.4000,-39.7125,3.9938,179.0070,-10.3481,-0.7025,
1.931216,0.2633,0.7207,0.6266,2.4443,5.4016,-3.0154,0.5530,-0.3590,-0.2447,8.4000,-39.7125,3.9938,180.7682,-10.9599,-0.0124,
1.950983,0.2633,0.7207,0.6266,2.4443,5.4016,-3.0154,0.5530,-0.3590,-0.2447,6.9938,-41.3250,7.5188,180.7682,-10.9599,-0.0124,
1.960418,0.2633,0.7207,0.6266,2.4443,5.4016,-3.0154,0.6445,-0.3707,-0.1709,6.9938,-41.3250,7.5188,180.7682,-10.9599,-0.0124,
1.968831,0.2633,0.7207,0.6266,2.3560,4.9465,-3.1047,0.6445,-0.3707,-0.1709,6.9938,-41.3250,7.5188,180.7682,-10.9599,-0.0124,
1.977113,0.2633,0.7207,0.6266,2.3560,4.9465,-3.1047,0.6445,-0.3707,-0.1709,6.9938,-41.3250,7.5188,182.4816,-11.7036,0.6390,
1.981885,0.2564,0.7353,0.7004,2.3560,4.9465,-3.1047,0.6445,-0.3707,-0.1709,6.9938,-41.3250,7.5188,182.4816,-11.7036,0.6390,
1.986682,0.3107,0.6444,0.7480,2.3560,4.9465,-3.1047,0.6445,-0.3707,-0.1709,6.9938,-41.3250,7.5188,182.4816,-11.7036,0.6390,
1.991363,0.3454,0.5944,0.5597,2.3560,4.9465,-3.1047,0.6445,-0.3707,-0.1709,6.9938,-41.3250,7.5188,182.4816,-11.7036,0.6390,
1.995269,0.2763,0.6755,0.6012,2.3560,4.9465,-3.1047,0.6445,-0.3707,-0.1709,6.9938,-41.3250,7.5188,182.4816,-11.7036,0.6390,
2.000940,0.1937,0.6931,0.7676,2.3560,4.9465,-3.1047,0.6445,-0.3707,-0.1709,6.9938,-41.3250,7.5188,182.4816,-11.7036,0.6390,
2.021711,0.1937,0.6931,0.7676,2.3560,4.9465,-3.1047,0.6445,-0.3707,-0.1709,6.0000,-42.2063,10.4438,182.4816,-11.7036,0.6390,
2.030189,0.1937,0.6931,0.7676,2.3560,4.9465,-3.1047,0.6852,-0.3478,-0.1220,6.0000,-42.2063,10.4438,182.4816,-11.7036,0.6390,
2.035315,0.1937,0.6931,0.7676,2.3560,4.9465,-3.1047,0.6852,-0.3478,-0.1220,6.0000,-42.2063,10.4438,184.2078,-12.4665,1.3081,
2.039649,0.1937,0.6931,0.7676,2.2416,4.8192,-3.0754,0.6852,-0.3478,-0.1220,6.0000,-42.2063,10.4438,184.2078,-12.4665,1.3081,
2.076752,0.3095,0.5975,0.5829,2.2416,4.8192,-3.0754,0.6852,-0.3478,-0.1220,6.0000,-42.2063,10.4438,184.2078,-12.4665,1.3081,
2.087051,0.2851,0.5841,0.5262,2.2416,4.8192,-3.0754,0.6852,-0.3478,-0.1220,6.0000,-42.2063,10.4438,184.2078,-12.4665,1.3081,
2.097008,0.2252,0.5531,0.6217,2.2416,4.8192,-3.0754,0.6852,-0.3478,-0.1220,6.0000,-42.2063,10.4438,184.2078,-12.4665,1.3081,
2.102642,0.3275,0.6049,0.6166,2.2416,4.8192,-3.0754,0.6852,-0.3478,-0.1220,6.0000,-42.2063,10.4438,184.2078,-12.4665,1.3081,
2.108860,0.2420,0.5709,0.6002,2.2416,4.8192,-3.0754,0.6852,-0.3478,-0.1220,6.0000,-42.2063,10.4438,184.2078,-12.4665,1.3081,
2.113220,0.2420,0.5709,0.6002,2.2416,4.8192,-3.0754,0.6852,-0.3478,-0.1220,5.6063,-42.5250,12.4875,184.2078,-12.4665,1.3081,
2.119112,0.2420,0.5709,0.6002,2.2416,4.8192,-3.0754,0.6787,-0.3015,-0.0991,5.6063,-42.5250,12.4875,184.2078,-12.4665,1.3081,
2.121597,0.2420,0.5709,0.6002,2.4621,3.5356,-3.8556,0.6787,-0.3015,-0.0991,5.6063,-42.5250,12.4875,184.2078,-12.4665,1.3081,
2.123367,0.2420,0.5709,0.6002,2.4621,3.5356,-3.8556,0.6787,-0.3015,-0.0991,5.6063,-42.5250,12.4875,185.8952,-13.1609,1.8941,
2.160492,0.2420,0.5709,0.6002,2.4621,3.5356,-3.8556,0.6787,-0.3015,-0.0991,5.5500,-42.6562,13.8938,185.8952,-13.1609,1.8941,
2.167812,0.2420,0.5709,0.6002,3.2874,5.2436,-4.2530,0.6787,-0.3015,-0.0991,5.5500,-42.6562,13.8938,185.8952,-13.1609,1.8941,
2.175629,0.2420,0.5709,0.6002,3.2874,5.2436,-4.2530,0.6787,-0.3015,-0.0991,5.5500,-42.6562,13.8938,187.5349,-13.9232,2.3884,
2.180243,0.2420,0.5709,0.6002,3.2874,5.2436,-4.2530,0.6310,-0.2606,-0.0933,5.5500,-42.6562,13.8938,187.5349,-13.9232,2.3884,
2.182171,0.2640,0.6005,0.5629,3.2874,5.2436,-4.2530,0.6310,-0.2606,-0.0933,5.5500,-42.6562,13.8938,187.5349,-13.9232,2.3884,
2.183856,0.2638,0.5839,0.4620,3.2874,5.2436,-4.2530,0.6310,-0.2606,-0.0933,5.5500,-42.6562,13.8938,187.5349,-13.9232,2.3884,
2.185545,0.3070,0.5887,0.5726,3.2874,5.2436,-4.2530,0.6310,-0.2606,-0.0933,5.5500,-42.6562,13.8938,187.5349,-13.9232,2.3884,
2.187308,0.2687,0.7204,0.6425,3.2874,5.2436,-4.2530,0.6310,-0.2606,-0.0933,5.5500,-42.6562,13.8938,187.5349,-13.9232,2.3884,
2.188966,0.2890,0.7338,0.6503,3.2874,5.2436,-4.2530,0.6310,-0.2606,-0.0933,5.5500,-42.6562,13.8938,187.5349,-13.9232,2.3884,
2.226487,0.2890,0.7338,0.6503,3.2874,5.2436,-4.2530,0.6310,-0.2606,-0.0933,5.5500,-42.6562,13.8938,189.1409,-14.6807,2.8662,
2.229524,0.2890,0.7338,0.6503,2.7364,4.3672,-3.4560,0.6310,-0.2606,-0.0933,5.5500,-42.6562,13.8938,189.1409,-14.6807,2.8662,
2.231793,0.2890,0.7338,0.6503,2.7364,4.3672,-3.4560,0.5657,-0.2392,-0.0922,5.5500,-42.6562,13.8938,189.1409,-14.6807,2.8662,
2.234033,0.2890,0.7338,0.6503,2.7364,4.3672,-3.4560,0.5657,-0.2392,-0.0922,5.8875,-42.6188,14.7000,189.1409,-14.6807,2.8662,
2.272683,0.3405,0.7458,0.6390,2.7364,4.3672,-3.4560,0.5657,-0.2392,-0.0922,5.8875,-42.6188,14.7000,189.1409,-14.6807,2.8662,
2.275841,0.3114,0.7248,0.6945,2.7364,4.3672,-3.4560,0.5657,-0.2392,-0.0922,5.8875,-42.6188,14.7000,189.1409,-14.6807,2.8662,
2.278181,0.3129,0.7014,0.7072,2.7364,4.3672,-3.4560,0.5657,-0.2392,-0.0922,5.8875,-42.6188,14.7000,189.1409,-14.6807,2.8662,
2.280318,0.3083,0.7128,0.7050,2.7364,4.3672,-3.4560,0.5657,-0.2392,-0.0922,5.8875,-42.6188,14.7000,189.1409,-14.6807,2.8662,
2.282548,0.2939,0.6962,0.8531,2.7364,4.3672,-3.4560,0.5657,-0.2392,-0.0922,5.8875,-42.6188,14.7000,189.1409,-14.6807,2.8662,
2.294106,0.2939,0.6962,0.8531,2.7364,4.3672,-3.4560,0.5657,-0.2392,-0.0922,5.8875,-42.6188,14.7000,190.6939,-15.4541,3.3215,
2.299767,0.2939,0.6962,0.8531,2.5102,4.2694,-2.6227,0.5657,-0.2392,-0.0922,5.8875,-42.6188,14.7000,190.6939,-15.4541,3.3215,
2.305797,0.2939,0.6962,0.8531,2.5102,4.2694,-2.6227,0.5112,-0.2286,-0.0892,5.8875,-42.6188,14.7000,190.6939,-15.4541,3.3215,
2.310439,0.2939,0.6962,0.8531,2.5102,4.2694,-2.6227,0.5112,-0.2286,-0.0892,6.4500,-42.4500,14.9625,190.6939,-15.4541,3.3215,
2.361514,0.2939,0.6962,0.8531,2.5102,4.2694,-2.6227,0.4714,-0.2217,-0.0839,6.4500,-42.4500,14.9625,190.6939,-15.4541,3.3215,
2.374868,0.2939,0.6962,0.8531,2.5648,3.5925,-1.6860,0.4714,-0.2217,-0.0839,6.4500,-42.4500,14.9625,190.6939,-15.4541,3.3215,
2.381533,0.2939,0.6962,0.8531,2.5648,3.5925,-1.6860,0.4714,-0.2217,-0.0839,6.4500,-42.4500,14.9625,192.1980,-16.2311,3.8143,
2.386452,0.2939,0.6962,0.8531,2.5648,3.5925,-1.6860,0.4714,-0.2217,-0.0839,7.0688,-42.4313,14.8125,192.1980,-16.2311,3.8143,
2.395142,0.3068,0.6395,0.9383,2.5648,3.5925,-1.6860,0.4714,-0.2217,-0.0839,7.0688,-42.4313,14.8125,192.1980,-16.2311,3.8143,
2.399495,0.3315,0.6586,0.7260,2.5648,3.5925,-1.6860,0.4714,-0.2217,-0.0839,7.0688,-42.4313,14.8125,192.1980,-16.2311,3.8143,
2.404174,0.3681,0.6979,0.6036,2.5648,3.5925,-1.6860,0.4714,-0.2217,-0.0839,7.0688,-42.4313,14.8125,192.1980,-16.2311,3.8143,
2.407949,0.3654,0.6791,0.7075,2.5648,3.5925,-1.6860,0.4714,-0.2217,-0.0839,7.0688,-42.4313,14.8125,192.1980,-16.2311,3.8143,
2.411091,0.3451,0.6483,0.7822,2.5648,3.5925,-1.6860,0.4714,-0.2217,-0.0839,7.0688,-42.4313,14.8125,192.1980,-16.2311,3.8143,
2.428409,0.3451,0.6483,0.7822,2.5648,3.5925,-1.6860,0.4276,-0.2153,-0.0759,7.0688,-42.4313,14.8125,192.1980,-16.2311,3.8143,
2.430870,0.3451,0.6483,0.7822,2.7018,3.5559,-1.9349,0.4276,-0.2153,-0.0759,7.0688,-42.4313,14.8125,192.1980,-16.2311,3.8143,
2.432593,0.3451,0.6483,0.7822,2.7018,3.5559,-1.9349,0.4276,-0.2153,-0.0759,7.0688,-42.4313,14.8125,193.6424,-17.0810,4.3583,
2.441473,0.3451,0.6483,0.7822,2.7018,3.5559,-1.9349,0.4276,-0.2153,-0.0759,7.6875,-42.2812,14.6250,193.6424,-17.0810,4.3583,
2.468954,0.3456,0.6745,0.7075,2.7018,3.5559,-1.9349,0.4276,-0.2153,-0.0759,7.6875,-42.2812,14.6250,193.6424,-17.0810,4.3583,
2.471772,0.3236,0.6774,0.7202,2.7018,3.5559,-1.9349,0.4276,-0.2153,-0.0759,7.6875,-42.2812,14.6250,193.6424,-17.0810,4.3583,
2.473967,0.3217,0.6669,0.7942,2.7018,3.5559,-1.9349,0.4276,-0.2153,-0.0759,7.6875,-42.2812,14.6250,193.6424,-17.0810,4.3583,
2.476045,0.3642,0.7519,0.7045,2.7018,3.5559,-1.9349,0.4276,-0.2153,-0.0759,7.6875,-42.2812,14.6250,193.6424,-17.0810,4.3583,
2.478343,0.4043,0.7336,0.6115,2.7018,3.5559,-1.9349,0.4276,-0.2153,-0.0759,7.6875,-42.2812,14.6250,193.6424,-17.0810,4.3583,
2.492923,0.4043,0.7336,0.6115,2.4032,4.2323,-2.0200,0.4276,-0.2153,-0.0759,7.6875,-42.2812,14.6250,193.6424,-17.0810,4.3583,
2.496020,0.4043,0.7336,0.6115,2.4032,4.2323,-2.0200,0.4276,-0.2153,-0.0759,7.6875,-42.2812,14.6250,195.0182,-17.9724,4.9578,
2.498410,0.4043,0.7336,0.6115,2.4032,4.2323,-2.0200,0.3696,-0.2092,-0.0654,7.6875,-42.2812,14.6250,195.0182,-17.9724,4.9578,
2.510611,0.4043,0.7336,0.6115,2.4032,4.2323,-2.0200,0.3696,-0.2092,-0.0654,7.8000,-42.2625,14.3813,195.0182,-17.9724,4.9578,
2.560266,0.4043,0.7336,0.6115,2.4032,4.2323,-2.0200,0.3105,-0.2032,-0.0563,7.8000,-42.2625,14.3813,195.0182,-17.9724,4.9578,
2.563320,0.4043,0.7336,0.6115,2.4032,4.2323,-2.0200,0.3105,-0.2032,-0.0563,7.8000,-42.2625,14.3813,196.3796,-18.8525,5.6956,
2.565555,0.4043,0.7336,0.6115,2.5648,3.2461,-1.4683,0.3105,-0.2032,-0.0563,7.8000,-42.2625,14.3813,196.3796,-18.8525,5.6956,
2.567713,0.3542,0.6564,0.6887,2.5648,3.2461,-1.4683,0.3105,-0.2032,-0.0563,7.8000,-42.2625,14.3813,196.3796,-18.8525,5.6956,
2.569815,0.3515,0.6471,0.7710,2.5648,3.2461,-1.4683,0.3105,-0.2032,-0.0563,7.8000,-42.2625,14.3813,196.3796,-18.8525,5.6956,
2.571990,0.3869,0.6525,0.7355,2.5648,3.2461,-1.4683,0.3105,-0.2032,-0.0563,7.8000,-42.2625,14.3813,196.3796,-18.8525,5.6956,
2.574103,0.3586,0.6564,0.6884,2.5648,3.2461,-1.4683,0.3105,-0.2032,-0.0563,7.8000,-42.2625,14.3813,196.3796,-18.8525,5.6956,
2.576250,0.3402,0.6461,0.7556,2.5648,3.2461,-1.4683,0.3105,-0.2032,-0.0563,7.8000,-42.2625,14.3813,196.3796,-18.8525,5.6956,
2.580938,0.3402,0.6461,0.7556,2.5648,3.2461,-1.4683,0.3105,-0.2032,-0.0563,7.7063,-42.3563,13.7438,196.3796,-18.8525,5.6956,
2.627042,0.3402,0.6461,0.7556,2.5648,3.2461,-1.4683,0.2641,-0.1976,-0.0520,7.7063,-42.3563,13.7438,196.3796,-18.8525,5.6956,
2.637857,0.3402,0.6461,0.7556,2.4590,2.4947,-1.4674,0.2641,-0.1976,-0.0520,7.7063,-42.3563,13.7438,196.3796,-18.8525,5.6956,
2.644852,0.3402,0.6461,0.7556,2.4590,2.4947,-1.4674,0.2641,-0.1976,-0.0520,7.7063,-42.3563,13.7438,197.6595,-19.7433,6.4581,
2.652174,0.3402,0.6461,0.7556,2.4590,2.4947,-1.4674,0.2641,-0.1976,-0.0520,7.5000,-42.3375,12.7688,197.6595,-19.7433,6.4581,
2.666189,0.3710,0.5824,0.7810,2.4590,2.4947,-1.4674,0.2641,-0.1976,-0.0520,7.5000,-42.3375,12.7688,197.6595,-19.7433,6.4581,
2.675289,0.3762,0.6141,0.7143,2.4590,2.4947,-1.4674,0.2641,-0.1976,-0.0520,7.5000,-42.3375,12.7688,197.6595,-19.7433,6.4581,
2.680036,0.3490,0.5643,0.6489,2.4590,2.4947,-1.4674,0.2641,-0.1976,-0.0520,7.5000,-42.3375,12.7688,197.6595,-19.7433,6.4581,
2.684045,0.3583,0.5995,0.8325,2.4590,2.4947,-1.4674,0.2641,-0.1976,-0.0520,7.5000,-42.3375,12.7688,197.6595,-19.7433,6.4581,
2.690882,0.4206,0.5352,0.7598,2.4590,2.4947,-1.4674,0.2641,-0.1976,-0.0520,7.5000,-42.3375,12.7688,197.6595,-19.7433,6.4581,
2.695806,0.4206,0.5352,0.7598,2.3145,2.5763,-0.3612,0.2641,-0.1976,-0.0520,7.5000,-42.3375,12.7688,197.6595,-19.7433,6.4581,
2.700302,0.4206,0.5352,0.7598,2.3145,2.5763,-0.3612,0.2248,-0.1934,-0.0495,7.5000,-42.3375,12.7688,197.6595,-19.7433,6.4581,
2.702291,0.4206,0.5352,0.7598,2.3145,2.5763,-0.3612,0.2248,-0.1934,-0.0495,7.5000,-42.3375,12.7688,198.8515,-20.6191,7.2802,
2.724916,0.4206,0.5352,0.7598,2.3145,2.5763,-0.3612,0.2248,-0.1934,-0.0495,7.4438,-42.2812,11.6438,198.8515,-20.6191,7.2802,
2.760237,0.4206,0.5352,0.7598,2.3145,2.5763,-0.3612,0.2248,-0.1934,-0.0495,7.4438,-42.2812,11.6438,199.9554,-21.5425,8.1386,
2.763172,0.4206,0.5352,0.7598,2.3145,2.5763,-0.3612,0.1799,-0.1946,-0.0444,7.4438,-42.2812,11.6438,199.9554,-21.5425,8.1386,
2.765404,0.4206,0.5352,0.7598,1.9630,1.7860,-1.4453,0.1799,-0.1946,-0.0444,7.4438,-42.2812,11.6438,199.9554,-21.5425,8.1386,
2.767666,0.4140,0.5408,0.6992,1.9630,1.7860,-1.4453,0.1799,-0.1946,-0.0444,7.4438,-42.2812,11.6438,199.9554,-21.5425,8.1386,
2.769735,0.3405,0.5550,0.8050,1.9630,1.7860,-1.4453,0.1799,-0.1946,-0.0444,7.4438,-42.2812,11.6438,199.9554,-21.5425,8.1386,
2.771878,0.3307,0.5403,0.7805,1.9630,1.7860,-1.4453,0.1799,-0.1946,-0.0444,7.4438,-42.2812,11.6438,199.9554,-21.5425,8.1386,
2.774019,0.3855,0.5651,0.7041,1.9630,1.7860,-1.4453,0.1799,-0.1946,-0.0444,7.4438,-42.2812,11.6438,199.9554,-21.5425,8.1386,
2.776115,0.4333,0.5254,0.6918,1.9630,1.7860,-1.4453,0.1799,-0.1946,-0.0444,7.4438,-42.2812,11.6438,199.9554,-21.5425,8.1386,
2.790401,0.4333,0.5254,0.6918,1.9630,1.7860,-1.4453,0.1799,-0.1946,-0.0444,7.3688,-42.3563,10.3688,199.9554,-21.5425,8.1386,
2.827384,0.4333,0.5254,0.6918,1.9630,1.7860,-1.4453,0.1276,-0.2065,-0.0372,7.3688,-42.3563,10.3688,199.9554,-21.5425,8.1386,
2.836628,0.4333,0.5254,0.6918,2.2001,0.7239,-0.7256,0.1276,-0.2065,-0.0372,7.3688,-42.3563,10.3688,199.9554,-21.5425,8.1386,
2.846389,0.4333,0.5254,0.6918,2.2001,0.7239,-0.7256,0.1276,-0.2065,-0.0372,7.3688,-42.3563,10.3688,201.0518,-22.5452,9.1426,
2.861088,0.4333,0.5254,0.6918,2.2001,0.7239,-0.7256,0.1276,-0.2065,-0.0372,7.2938,-42.4125,9.2063,201.0518,-22.5452,9.1426,
2.869467,0.3730,0.4649,0.8155,2.2001,0.7239,-0.7256,0.1276,-0.2065,-0.0372,7.2938,-42.4125,9.2063,201.0518,-22.5452,9.1426,
2.877280,0.3415,0.4556,0.8744,2.2001,0.7239,-0.7256,0.1276,-0.2065,-0.0372,7.2938,-42.4125,9.2063,201.0518,-22.5452,9.1426,
2.881573,0.2829,0.4891,0.8115,2.2001,0.7239,-0.7256,0.1276,-0.2065,-0.0372,7.2938,-42.4125,9.2063,201.0518,-22.5452,9.1426,
2.886181,0.2899,0.4861,0.8301,2.2001,0.7239,-0.7256,0.1276,-0.2065,-0.0372,7.2938,-42.4125,9.2063,201.0518,-22.5452,9.1426,
2.889879,0.3385,0.5386,0.7625,2.2001,0.7239,-0.7256,0.1276,-0.2065,-0.0372,7.2938,-42.4125,9.2063,201.0518,-22.5452,9.1426,
2.894462,0.3385,0.5386,0.7625,2.2001,0.7239,-0.7256,0.0740,-0.2208,-0.0295,7.2938,-42.4125,9.2063,201.0518,-22.5452,9.1426,
2.897631,0.3385,0.5386,0.7625,1.5145,1.3862,-1.3140,0.0740,-0.2208,-0.0295,7.2938,-42.4125,9.2063,201.0518,-22.5452,9.1426,
2.901289,0.3385,0.5386,0.7625,1.5145,1.3862,-1.3140,0.0740,-0.2208,-0.0295,7.2938,-42.4125,9.2063,202.1051,-23.7231,10.1977,
2.930890,0.3385,0.5386,0.7625,1.5145,1.3862,-1.3140,0.0740,-0.2208,-0.0295,7.2188,-42.2812,8.1000,202.1051,-23.7231,10.1977,
2.959865,0.3385,0.5386,0.7625,1.5145,1.3862,-1.3140,0.0244,-0.2158,-0.0210,7.2188,-42.2812,8.1000,202.1051,-23.7231,10.1977,
2.961775,0.3385,0.5386,0.7625,1.0591,1.9407,-1.2152,0.0244,-0.2158,-0.0210,7.2188,-42.2812,8.1000,202.1051,-23.7231,10.1977,
2.962935,0.3385,0.5386,0.7625,1.0591,1.9407,-1.2152,0.0244,-0.2158,-0.0210,7.2188,-42.2812,8.1000,203.0350,-24.9137,11.2540,
2.964006,0.4148,0.4952,0.6743,1.0591,1.9407,-1.2152,0.0244,-0.2158,-0.0210,7.2188,-42.2812,8.1000,203.0350,-24.9137,11.2540,
2.965053,0.3471,0.4725,0.8428,1.0591,1.9407,-1.2152,0.0244,-0.2158,-0.0210,7.2188,-42.2812,8.1000,203.0350,-24.9137,11.2540,
2.966111,0.2875,0.5868,0.8255,1.0591,1.9407,-1.2152,0.0244,-0.2158,-0.0210,7.2188,-42.2812,8.1000,203.0350,-24.9137,11.2540,
2.967106,0.3405,0.5758,0.8018,1.0591,1.9407,-1.2152,0.0244,-0.2158,-0.0210,7.2188,-42.2812,8.1000,203.0350,-24.9137,11.2540,
2.968068,0.2689,0.5269,0.9615,1.0591,1.9407,-1.2152,0.0244,-0.2158,-0.0210,7.2188,-42.2812,8.1000,203.0350,-24.9137,11.2540,
2.999569,0.2689,0.5269,0.9615,1.0591,1.9407,-1.2152,0.0244,-0.2158,-0.0210,6.9563,-42.2438,6.8813,203.0350,-24.9137,11.2540,
3.027254,0.2689,0.5269,0.9615,1.4686,2.2791,-1.2340,0.0244,-0.2158,-0.0210,6.9563,-42.2438,6.8813,203.0350,-24.9137,11.2540,
3.029287,0.2689,0.5269,0.9615,1.4686,2.2791,-1.2340,0.0244,-0.2158,-0.0210,6.9563,-42.2438,6.8813,203.8171,-26.0433,12.3256,
3.030666,0.2689,0.5269,0.9615,1.4686,2.2791,-1.2340,-0.0223,-0.1753,-0.0085,6.9563,-42.2438,6.8813,203.8171,-26.0433,12.3256,
3.057614,0.2413,0.6298,0.9002,1.4686,2.2791,-1.2340,-0.0223,-0.1753,-0.0085,6.9563,-42.2438,6.8813,203.8171,-26.0433,12.3256,
3.059427,0.3549,0.6093,0.7546,1.4686,2.2791,-1.2340,-0.0223,-0.1753,-0.0085,6.9563,-42.2438,6.8813,203.8171,-26.0433,12.3256,
3.060438,0.2787,0.3640,0.9525,1.4686,2.2791,-1.2340,-0.0223,-0.1753,-0.0085,6.9563,-42.2438,6.8813,203.8171,-26.0433,12.3256,
3.061385,0.2396,0.2587,1.0185,1.4686,2.2791,-1.2340,-0.0223,-0.1753,-0.0085,6.9563,-42.2438,6.8813,203.8171,-26.0433,12.3256,
3.062393,0.3170,0.5580,0.7791,1.4686,2.2791,-1.2340,-0.0223,-0.1753,-0.0085,6.9563,-42.2438,6.8813,203.8171,-26.0433,12.3256,
3.069116,0.3170,0.5580,0.7791,1.4686,2.2791,-1.2340,-0.0223,-0.1753,-0.0085,6.5063,-42.2063,5.8688,203.8171,-26.0433,12.3256,
3.093069,0.3170,0.5580,0.7791,1.4686,2.2791,-1.2340,-0.0631,-0.1092,0.0069,6.5063,-42.2063,5.8688,203.8171,-26.0433,12.3256,
3.094961,0.3170,0.5580,0.7791,0.7882,1.5704,-0.6576,-0.0631,-0.1092,0.0069,6.5063,-42.2063,5.8688,203.8171,-26.0433,12.3256,
3.096031,0.3170,0.5580,0.7791,0.7882,1.5704,-0.6576,-0.0631,-0.1092,0.0069,6.5063,-42.2063,5.8688,204.5822,-27.3325,13.4762,
3.141152,0.3170,0.5580,0.7791,0.7882,1.5704,-0.6576,-0.0631,-0.1092,0.0069,5.6625,-41.9438,4.9688,204.5822,-27.3325,13.4762,
3.156275,0.4651,0.7189,0.5858,0.7882,1.5704,-0.6576,-0.0631,-0.1092,0.0069,5.6625,-41.9438,4.9688,204.5822,-27.3325,13.4762,
3.158441,0.5298,0.4532,0.7945,0.7882,1.5704,-0.6576,-0.0631,-0.1092,0.0069,5.6625,-41.9438,4.9688,204.5822,-27.3325,13.4762,
3.160008,0.5555,0.4255,0.7463,0.7882,1.5704,-0.6576,-0.0631,-0.1092,0.0069,5.6625,-41.9438,4.9688,204.5822,-27.3325,13.4762,
3.161321,0.4864,0.4488,0.7808,0.7882,1.5704,-0.6576,-0.0631,-0.1092,0.0069,5.6625,-41.9438,4.9688,204.5822,-27.3325,13.4762,
3.162575,0.2841,0.3080,0.9735,0.7882,1.5704,-0.6576,-0.0631,-0.1092,0.0069,5.6625,-41.9438,4.9688,204.5822,-27.3325,13.4762,
3.163515,0.2841,0.3080,0.9735,0.7882,1.5704,-0.6576,-0.0987,-0.0361,0.0277,5.6625,-41.9438,4.9688,204.5822,-27.3325,13.4762,
3.164480,0.2841,0.3080,0.9735,2.5365,0.0718,-0.7151,-0.0987,-0.0361,0.0277,5.6625,-41.9438,4.9688,204.5822,-27.3325,13.4762,
3.165481,0.2841,0.3080,0.9735,2.5365,0.0718,-0.7151,-0.0987,-0.0361,0.0277,5.6625,-41.9438,4.9688,205.1618,-28.6152,14.5401,
3.210621,0.2841,0.3080,0.9735,2.5365,0.0718,-0.7151,-0.0987,-0.0361,0.0277,4.7438,-41.8313,4.2938,205.1618,-28.6152,14.5401,
3.226646,0.2841,0.3080,0.9735,2.5365,0.0718,-0.7151,-0.1302,0.0346,0.0603,4.7438,-41.8313,4.2938,205.1618,-28.6152,14.5401,
3.235631,0.2841,0.3080,0.9735,0.5677,-0.5001,-0.1225,-0.1302,0.0346,0.0603,4.7438,-41.8313,4.2938,205.1618,-28.6152,14.5401,
3.244215,0.2841,0.3080,0.9735,0.5677,-0.5001,-0.1225,-0.1302,0.0346,0.0603,4.7438,-41.8313,4.2938,205.4316,-29.8134,15.3555,
3.255349,0.2917,0.3496,0.9909,0.5677,-0.5001,-0.1225,-0.1302,0.0346,0.0603,4.7438,-41.8313,4.2938,205.4316,-29.8134,15.3555,
3.263732,0.3007,0.4590,0.9032,0.5677,-0.5001,-0.1225,-0.1302,0.0346,0.0603,4.7438,-41.8313,4.2938,205.4316,-29.8134,15.3555,
3.267567,0.3559,0.5084,0.7075,0.5677,-0.5001,-0.1225,-0.1302,0.0346,0.0603,4.7438,-41.8313,4.2938,205.4316,-29.8134,15.3555,
3.272503,0.3012,0.4245,0.9171,0.5677,-0.5001,-0.1225,-0.1302,0.0346,0.0603,4.7438,-41.8313,4.2938,205.4316,-29.8134,15.3555,
3.277515,0.5254,0.2755,0.8169,0.5677,-0.5001,-0.1225,-0.1302,0.0346,0.0603,4.7438,-41.8313,4.2938,205.4316,-29.8134,15.3555,
3.280812,0.5254,0.2755,0.8169,0.5677,-0.5001,-0.1225,-0.1302,0.0346,0.0603,3.5438,-41.7563,3.7125,205.4316,-29.8134,15.3555,
3.294496,0.5254,0.2755,0.8169,0.5677,-0.5001,-0.1225,-0.1302,0.0346,0.0603,3.5438,-41.7563,3.7125,205.4106,-30.7669,16.1065,
3.296634,0.5254,0.2755,0.8169,2.8717,-2.6820,-0.3867,-0.1302,0.0346,0.0603,3.5438,-41.7563,3.7125,205.4106,-30.7669,16.1065,
3.298147,0.5254,0.2755,0.8169,2.8717,-2.6820,-0.3867,-0.1486,0.0945,0.1028,3.5438,-41.7563,3.7125,205.4106,-30.7669,16.1065,
3.335257,0.6349,0.1627,0.7199,2.8717,-2.6820,-0.3867,-0.1486,0.0945,0.1028,3.5438,-41.7563,3.7125,205.4106,-30.7669,16.1065,
3.338299,0.5868,0.3325,0.7431,2.8717,-2.6820,-0.3867,-0.1486,0.0945,0.1028,3.5438,-41.7563,3.7125,205.4106,-30.7669,16.1065,
3.340456,0.2616,0.8025,0.8084,2.8717,-2.6820,-0.3867,-0.1486,0.0945,0.1028,3.5438,-41.7563,3.7125,205.4106,-30.7669,16.1065,
3.342644,0.2982,0.6105,0.7473,2.8717,-2.6820,-0.3867,-0.1486,0.0945,0.1028,3.5438,-41.7563,3.7125,205.4106,-30.7669,16.1065,
3.350123,0.2982,0.6105,0.7473,2.8717,-2.6820,-0.3867,-0.1486,0.0945,0.1028,2.2500,-41.5500,3.3000,205.4106,-30.7669,16.1065,
3.359864,0.2982,0.6105,0.7473,2.8717,-2.6820,-0.3867,-0.1491,0.1227,0.1469,2.2500,-41.5500,3.3000,205.4106,-30.7669,16.1065,
3.362486,0.2982,0.6105,0.7473,2.8717,-2.6820,-0.3867,-0.1491,0.1227,0.1469,2.2500,-41.5500,3.3000,205.1531,-31.5201,16.8529,
3.364939,0.2982,0.6105,0.7473,0.6039,0.6355,-1.0818,-0.1491,0.1227,0.1469,2.2500,-41.5500,3.3000,205.1531,-31.5201,16.8529,
3.423784,0.2982,0.6105,0.7473,0.6039,0.6355,-1.0818,-0.1491,0.1227,0.1469,0.8250,-41.5125,2.9813,205.1531,-31.5201,16.8529,
3.436476,0.2982,0.6105,0.7473,0.6039,0.6355,-1.0818,-0.1320,0.0938,0.1803,0.8250,-41.5125,2.9813,205.1531,-31.5201,16.8529,
3.444316,0.2982,0.6105,0.7473,0.6039,0.6355,-1.0818,-0.1320,0.0938,0.1803,0.8250,-41.5125,2.9813,204.8168,-32.3095,17.5756,
3.449182,0.2982,0.6105,0.7473,1.1562,-0.2256,0.7556,-0.1320,0.0938,0.1803,0.8250,-41.5125,2.9813,204.8168,-32.3095,17.5756,
3.454500,0.4795,0.4827,0.9493,1.1562,-0.2256,0.7556,-0.1320,0.0938,0.1803,0.8250,-41.5125,2.9813,204.8168,-32.3095,17.5756,
3.460062,0.2337,0.3307,1.1035,1.1562,-0.2256,0.7556,-0.1320,0.0938,0.1803,0.8250,-41.5125,2.9813,204.8168,-32.3095,17.5756,
3.461881,0.3415,0.4615,0.8741,1.1562,-0.2256,0.7556,-0.1320,0.0938,0.1803,0.8250,-41.5125,2.9813,204.8168,-32.3095,17.5756,
3.463611,0.4101,0.3884,0.9310,1.1562,-0.2256,0.7556,-0.1320,0.0938,0.1803,0.8250,-41.5125,2.9813,204.8168,-32.3095,17.5756,
3.465259,0.5657,0.4121,0.7324,1.1562,-0.2256,0.7556,-0.1320,0.0938,0.1803,0.8250,-41.5125,2.9813,204.8168,-32.3095,17.5756,
3.491441,0.5657,0.4121,0.7324,1.1562,-0.2256,0.7556,-0.1320,0.0938,0.1803,-0.6562,-41.4938,2.8500,204.8168,-32.3095,17.5756,
3.493746,0.5657,0.4121,0.7324,1.1562,-0.2256,0.7556,-0.1079,0.0206,0.1990,-0.6562,-41.4938,2.8500,204.8168,-32.3095,17.5756,
3.495706,0.5657,0.4121,0.7324,2.9148,-3.1719,-4.3166,-0.1079,0.0206,0.1990,-0.6562,-41.4938,2.8500,204.8168,-32.3095,17.5756,
3.497420,0.5657,0.4121,0.7324,2.9148,-3.1719,-4.3166,-0.1079,0.0206,0.1990,-0.6562,-41.4938,2.8500,204.3452,-32.9691,18.1847,
3.530286,0.3967,0.4551,0.4959,2.9148,-3.1719,-4.3166,-0.1079,0.0206,0.1990,-0.6562,-41.4938,2.8500,204.3452,-32.9691,18.1847,
3.533279,0.6215,0.3048,0.4297,2.9148,-3.1719,-4.3166,-0.1079,0.0206,0.1990,-0.6562,-41.4938,2.8500,204.3452,-32.9691,18.1847,
3.535548,0.3300,0.5064,0.5079,2.9148,-3.1719,-4.3166,-0.1079,0.0206,0.1990,-0.6562,-41.4938,2.8500,204.3452,-32.9691,18.1847,
3.537646,0.3273,0.2164,1.4016,2.9148,-3.1719,-4.3166,-0.1079,0.0206,0.1990,-0.6562,-41.4938,2.8500,204.3452,-32.9691,18.1847,
3.539950,0.0527,0.4712,1.3507,2.9148,-3.1719,-4.3166,-0.1079,0.0206,0.1990,-0.6562,-41.4938,2.8500,204.3452,-32.9691,18.1847,
3.560156,0.0527,0.4712,1.3507,-0.2161,-1.3405,0.2444,-0.1079,0.0206,0.1990,-0.6562,-41.4938,2.8500,204.3452,-32.9691,18.1847,
3.563295,0.0527,0.4712,1.3507,-0.2161,-1.3405,0.2444,-0.1079,0.0206,0.1990,-0.6562,-41.4938,2.8500,203.8794,-33.5042,18.7707,
3.565510,0.0527,0.4712,1.3507,-0.2161,-1.3405,0.2444,-0.0820,-0.0515,0.2048,-0.6562,-41.4938,2.8500,203.8794,-33.5042,18.7707,
3.567771,0.0527,0.4712,1.3507,-0.2161,-1.3405,0.2444,-0.0820,-0.0515,0.2048,-1.8000,-41.3813,2.7188,203.8794,-33.5042,18.7707,
3.626972,0.0527,0.4712,1.3507,-0.2161,-1.3405,0.2444,-0.0556,-0.0887,0.1986,-1.8000,-41.3813,2.7188,203.8794,-33.5042,18.7707,
3.630052,0.0527,0.4712,1.3507,-0.2161,-1.3405,0.2444,-0.0556,-0.0887,0.1986,-1.8000,-41.3813,2.7188,203.4230,-33.9377,19.2198,
3.632280,0.0527,0.4712,1.3507,-4.6654,-1.9452,-0.5243,-0.0556,-0.0887,0.1986,-1.8000,-41.3813,2.7188,203.4230,-33.9377,19.2198,
3.634546,0.3412,0.4121,0.7561,-4.6654,-1.9452,-0.5243,-0.0556,-0.0887,0.1986,-1.8000,-41.3813,2.7188,203.4230,-33.9377,19.2198,
3.636655,0.4453,0.3677,1.1050,-4.6654,-1.9452,-0.5243,-0.0556,-0.0887,0.1986,-1.8000,-41.3813,2.7188,203.4230,-33.9377,19.2198,
3.638918,0.3994,0.3911,1.0270,-4.6654,-1.9452,-0.5243,-0.0556,-0.0887,0.1986,-1.8000,-41.3813,2.7188,203.4230,-33.9377,19.2198,
3.641003,0.0156,0.3435,0.7727,-4.6654,-1.9452,-0.5243,-0.0556,-0.0887,0.1986,-1.8000,-41.3813,2.7188,203.4230,-33.9377,19.2198,
3.643072,-0.0551,0.4238,0.5191,-4.6654,-1.9452,-0.5243,-0.0556,-0.0887,0.1986,-1.8000,-41.3813,2.7188,203.4230,-33.9377,19.2198,
3.645257,-0.0551,0.4238,0.5191,-4.6654,-1.9452,-0.5243,-0.0556,-0.0887,0.1986,-2.5688,-41.2500,2.6438,203.4230,-33.9377,19.2198,
3.693661,-0.0551,0.4238,0.5191,-4.6654,-1.9452,-0.5243,-0.0292,-0.0782,0.1821,-2.5688,-41.2500,2.6438,203.4230,-33.9377,19.2198,
3.703523,-0.0551,0.4238,0.5191,-0.5654,-1.2653,0.3830,-0.0292,-0.0782,0.1821,-2.5688,-41.2500,2.6438,203.4230,-33.9377,19.2198,
3.712558,-0.0551,0.4238,0.5191,-0.5654,-1.2653,0.3830,-0.0292,-0.0782,0.1821,-2.5688,-41.2500,2.6438,203.4230,-33.9377,19.2198,
3.717793,-0.0551,0.4238,0.5191,-0.5654,-1.2653,0.3830,-0.0292,-0.0782,0.1821,-2.9813,-41.2500,2.6250,203.4230,-33.9377,19.2198,
3.730431,0.5425,0.3789,0.8511,-0.5654,-1.2653,0.3830,-0.0292,-0.0782,0.1821,-2.9813,-41.2500,2.6250,203.4230,-33.9377,19.2198,
3.738887,0.6090,0.3982,1.0405,-0.5654,-1.2653,0.3830,-0.0292,-0.0782,0.1821,-2.9813,-41.2500,2.6250,203.4230,-33.9377,19.2198,
3.745794,0.2035,0.4021,0.7761,-0.5654,-1.2653,0.3830,-0.0292,-0.0782,0.1821,-2.9813,-41.2500,2.6250,203.4230,-33.9377,19.2198,
3.751437,0.1656,0.4028,0.7497,-0.5654,-1.2653,0.3830,-0.0292,-0.0782,0.1821,-2.9813,-41.2500,2.6250,203.4230,-33.9377,19.2198,
3.755224,0.4043,0.4084,0.8751,-0.5654,-1.2653,0.3830,-0.0292,-0.0782,0.1821,-2.9813,-41.2500,2.6250,203.4230,-33.9377,19.2198,
3.760512,0.4043,0.4084,0.8751,-0.5654,-1.2653,0.3830,0.0006,-0.0169,0.1583,-2.9813,-41.2500,2.6250,203.4230,-33.9377,19.2198,
3.762282,0.4043,0.4084,0.8751,1.0092,-1.3183,1.7892,0.0006,-0.0169,0.1583,-2.9813,-41.2500,2.6250,203.4230,-33.9377,19.2198,
3.764077,0.4043,0.4084,0.8751,1.0092,-1.3183,1.7892,0.0006,-0.0169,0.1583,-2.9813,-41.2500,2.6250,202.6659,-34.4698,19.6327,
3.770305,0.4043,0.4084,0.8751,1.0092,-1.3183,1.7892,0.0006,-0.0169,0.1583,-3.2625,-41.2313,2.5688,202.6659,-34.4698,19.6327,
3.824348,0.4619,0.4001,0.9552,1.0092,-1.3183,1.7892,0.0006,-0.0169,0.1583,-3.2625,-41.2313,2.5688,202.6659,-34.4698,19.6327,
3.827413,0.3251,0.3911,0.8617,1.0092,-1.3183,1.7892,0.0006,-0.0169,0.1583,-3.2625,-41.2313,2.5688,202.6659,-34.4698,19.6327,
3.829660,0.2220,0.4050,0.8238,1.0092,-1.3183,1.7892,0.0006,-0.0169,0.1583,-3.2625,-41.2313,2.5688,202.6659,-34.4698,19.6327,
3.832014,0.2457,0.3911,0.9457,1.0092,-1.3183,1.7892,0.0006,-0.0169,0.1583,-3.2625,-41.2313,2.5688,202.6659,-34.4698,19.6327,
3.834146,0.3525,0.4121,0.7348,1.0092,-1.3183,1.7892,0.0006,-0.0169,0.1583,-3.2625,-41.2313,2.5688,202.6659,-34.4698,19.6327,
3.836264,0.3525,0.4121,0.7348,1.0092,-1.3183,1.7892,0.0281,0.0661,0.1349,-3.2625,-41.2313,2.5688,202.6659,-34.4698,19.6327,
3.838587,0.3525,0.4121,0.7348,1.0092,-1.3183,1.7892,0.0281,0.0661,0.1349,-3.2625,-41.2313,2.5688,202.6659,-34.4698,19.6327,
3.840605,0.3525,0.4121,0.7348,0.0739,-1.0966,-0.0465,0.0281,0.0661,0.1349,-3.2625,-41.2313,2.5688,202.6659,-34.4698,19.6327,
3.842766,0.3525,0.4121,0.7348,0.0739,-1.0966,-0.0465,0.0281,0.0661,0.1349,-3.1875,-41.2125,2.5125,202.6659,-34.4698,19.6327,
3.894005,0.3525,0.4121,0.7348,0.0739,-1.0966,-0.0465,0.0413,0.1106,0.1157,-3.1875,-41.2125,2.5125,202.6659,-34.4698,19.6327,
3.902996,0.3525,0.4121,0.7348,-1.8846,-1.5213,-1.3423,0.0413,0.1106,0.1157,-3.1875,-41.2125,2.5125,202.6659,-34.4698,19.6327,
3.914487,0.3525,0.4121,0.7348,-1.8846,-1.5213,-1.3423,0.0413,0.1106,0.1157,-3.1875,-41.2125,2.5125,202.6659,-34.4698,19.6327,
3.921464,0.3525,0.4121,0.7348,-1.8846,-1.5213,-1.3423,0.0413,0.1106,0.1157,-3.1125,-41.1750,2.3813,202.6659,-34.4698,19.6327,
3.928692,0.3319,0.4009,0.8328,-1.8846,-1.5213,-1.3423,0.0413,0.1106,0.1157,-3.1125,-41.1750,2.3813,202.6659,-34.4698,19.6327,
3.933213,0.3119,0.4055,0.9605,-1.8846,-1.5213,-1.3423,0.0413,0.1106,0.1157,-3.1125,-41.1750,2.3813,202.6659,-34.4698,19.6327,
3.938982,0.2015,0.3825,0.7136,-1.8846,-1.5213,-1.3423,0.0413,0.1106,0.1157,-3.1125,-41.1750,2.3813,202.6659,-34.4698,19.6327,
3.941442,0.2010,0.3794,0.8978,-1.8846,-1.5213,-1.3423,0.0413,0.1106,0.1157,-3.1125,-41.1750,2.3813,202.6659,-34.4698,19.6327,
3.943181,0.3439,0.3867,1.0219,-1.8846,-1.5213,-1.3423,0.0413,0.1106,0.1157,-3.1125,-41.1750,2.3813,202.6659,-34.4698,19.6327,
3.961100,0.3439,0.3867,1.0219,-1.8846,-1.5213,-1.3423,0.0369,0.0862,0.0989,-3.1125,-41.1750,2.3813,202.6659,-34.4698,19.6327,
3.968349,0.3439,0.3867,1.0219,-0.3487,-1.4308,1.8513,0.0369,0.0862,0.0989,-3.1125,-41.1750,2.3813,202.6659,-34.4698,19.6327,
3.975071,0.3439,0.3867,1.0219,-0.3487,-1.4308,1.8513,0.0369,0.0862,0.0989,-3.1125,-41.1750,2.3813,201.5242,-33.7896,19.4126,
3.981517,0.3439,0.3867,1.0219,-0.3487,-1.4308,1.8513,0.0369,0.0862,0.0989,-2.9813,-41.0813,2.2500,201.5242,-33.7896,19.4126,
4.025318,0.3686,0.3596,0.9779,-0.3487,-1.4308,1.8513,0.0369,0.0862,0.0989,-2.9813,-41.0813,2.2500,201.5242,-33.7896,19.4126,
4.033796,0.3549,0.3889,0.9601,-0.3487,-1.4308,1.8513,0.0369,0.0862,0.0989,-2.9813,-41.0813,2.2500,201.5242,-33.7896,19.4126,
4.040509,0.4346,0.4016,0.8062,-0.3487,-1.4308,1.8513,0.0369,0.0862,0.0989,-2.9813,-41.0813,2.2500,201.5242,-33.7896,19.4126,
4.046966,0.3293,0.3623,0.8929,-0.3487,-1.4308,1.8513,0.0369,0.0862,0.0989,-2.9813,-41.0813,2.2500,201.5242,-33.7896,19.4126,
4.051668,0.4363,0.3786,0.8247,-0.3487,-1.4308,1.8513,0.0369,0.0862,0.0989,-2.9813,-41.0813,2.2500,201.5242,-33.7896,19.4126,
4.057026,0.4363,0.3786,0.8247,-0.3487,-1.4308,1.8513,0.0236,0.0363,0.0860,-2.9813,-41.0813,2.2500,201.5242,-33.7896,19.4126,
4.061687,0.4363,0.3786,0.8247,-0.3487,-1.4308,1.8513,0.0236,0.0363,0.0860,-2.9813,-41.0813,2.2500,201.0531,-33.1449,19.3824,
4.065504,0.4363,0.3786,0.8247,0.9347,-1.3449,0.0208,0.0236,0.0363,0.0860,-2.9813,-41.0813,2.2500,201.0531,-33.1449,19.3824,
4.070408,0.4363,0.3786,0.8247,0.9347,-1.3449,0.0208,0.0236,0.0363,0.0860,-2.7563,-41.0063,2.1000,201.0531,-33.1449,19.3824,
4.095464,0.4363,0.3786,0.8247,0.9347,-1.3449,0.0208,0.0096,0.0189,0.0824,-2.7563,-41.0063,2.1000,201.0531,-33.1449,19.3824,
4.098354,0.4363,0.3786,0.8247,-0.8306,-0.9720,-0.0024,0.0096,0.0189,0.0824,-2.7563,-41.0063,2.1000,201.0531,-33.1449,19.3824,
4.100567,0.4363,0.3786,0.8247,-0.8306,-0.9720,-0.0024,0.0096,0.0189,0.0824,-2.7563,-41.0063,2.1000,200.6339,-32.5249,19.4315,
4.120961,0.4363,0.3786,0.8247,-0.8306,-0.9720,-0.0024,0.0096,0.0189,0.0824,-2.8313,-41.0438,2.1375,200.6339,-32.5249,19.4315,
4.130419,0.3615,0.3725,0.8639,-0.8306,-0.9720,-0.0024,0.0096,0.0189,0.0824,-2.8313,-41.0438,2.1375,200.6339,-32.5249,19.4315,
4.136344,0.3127,0.3796,0.8980,-0.8306,-0.9720,-0.0024,0.0096,0.0189,0.0824,-2.8313,-41.0438,2.1375,200.6339,-32.5249,19.4315,
4.144219,0.2271,0.3681,0.8211,-0.8306,-0.9720,-0.0024,0.0096,0.0189,0.0824,-2.8313,-41.0438,2.1375,200.6339,-32.5249,19.4315,
4.149214,0.3019,0.4053,0.8338,-0.8306,-0.9720,-0.0024,0.0096,0.0189,0.0824,-2.8313,-41.0438,2.1375,200.6339,-32.5249,19.4315,
4.155010,0.3796,0.3698,0.8228,-0.8306,-0.9720,-0.0024,0.0096,0.0189,0.0824,-2.8313,-41.0438,2.1375,200.6339,-32.5249,19.4315,
4.165234,0.3796,0.3698,0.8228,-0.8306,-0.9720,-0.0024,-0.0051,0.0252,0.0859,-2.8313,-41.0438,2.1375,200.6339,-32.5249,19.4315,
4.173478,0.3796,0.3698,0.8228,2.0108,-1.3105,0.9282,-0.0051,0.0252,0.0859,-2.8313,-41.0438,2.1375,200.6339,-32.5249,19.4315,
4.179099,0.3796,0.3698,0.8228,2.0108,-1.3105,0.9282,-0.0051,0.0252,0.0859,-2.8313,-41.0438,2.1375,200.2146,-31.8715,19.5385,
4.190682,0.3796,0.3698,0.8228,2.0108,-1.3105,0.9282,-0.0051,0.0252,0.0859,-2.9250,-40.9875,1.9875,200.2146,-31.8715,19.5385,
4.218493,0.1605,0.3740,0.8756,2.0108,-1.3105,0.9282,-0.0051,0.0252,0.0859,-2.9250,-40.9875,1.9875,200.2146,-31.8715,19.5385,
4.221435,0.4419,0.3786,0.8631,2.0108,-1.3105,0.9282,-0.0051,0.0252,0.0859,-2.9250,-40.9875,1.9875,200.2146,-31.8715,19.5385,
4.223544,0.3989,0.3615,0.9344,2.0108,-1.3105,0.9282,-0.0051,0.0252,0.0859,-2.9250,-40.9875,1.9875,200.2146,-31.8715,19.5385,
4.225677,0.0432,0.3547,0.8993,2.0108,-1.3105,0.9282,-0.0051,0.0252,0.0859,-2.9250,-40.9875,1.9875,200.2146,-31.8715,19.5385,
4.227774,0.1788,0.3794,0.8523,2.0108,-1.3105,0.9282,-0.0051,0.0252,0.0859,-2.9250,-40.9875,1.9875,200.2146,-31.8715,19.5385,
4.229792,0.1788,0.3794,0.8523,2.0108,-1.3105,0.9282,-0.0219,0.0259,0.0901,-2.9250,-40.9875,1.9875,200.2146,-31.8715,19.5385,
4.231913,0.1788,0.3794,0.8523,1.9932,-1.2142,0.8764,-0.0219,0.0259,0.0901,-2.9250,-40.9875,1.9875,200.2146,-31.8715,19.5385,
4.234137,0.1788,0.3794,0.8523,1.9932,-1.2142,0.8764,-0.0219,0.0259,0.0901,-2.9250,-40.9875,1.9875,199.7673,-31.1945,19.6478,
4.259907,0.1788,0.3794,0.8523,1.9932,-1.2142,0.8764,-0.0219,0.0259,0.0901,-2.8313,-40.9500,1.6313,199.7673,-31.1945,19.6478,
4.293956,0.1788,0.3794,0.8523,1.9932,-1.2142,0.8764,-0.0405,0.0194,0.0911,-2.8313,-40.9500,1.6313,199.7673,-31.1945,19.6478,
4.296886,0.1788,0.3794,0.8523,1.4836,-1.0643,1.2937,-0.0405,0.0194,0.0911,-2.8313,-40.9500,1.6313,199.7673,-31.1945,19.6478,
4.299247,0.1788,0.3794,0.8523,1.4836,-1.0643,1.2937,-0.0405,0.0194,0.0911,-2.8313,-40.9500,1.6313,199.3550,-30.5264,19.8092,
4.316920,0.4648,0.3594,0.9181,1.4836,-1.0643,1.2937,-0.0405,0.0194,0.0911,-2.8313,-40.9500,1.6313,199.3550,-30.5264,19.8092,
4.326698,-0.0206,0.3369,0.7519,1.4836,-1.0643,1.2937,-0.0405,0.0194,0.0911,-2.8313,-40.9500,1.6313,199.3550,-30.5264,19.8092,
4.333589,0.3948,0.3716,0.9689,1.4836,-1.0643,1.2937,-0.0405,0.0194,0.0911,-2.8313,-40.9500,1.6313,199.3550,-30.5264,19.8092,
4.340136,0.3989,0.3163,0.9210,1.4836,-1.0643,1.2937,-0.0405,0.0194,0.0911,-2.8313,-40.9500,1.6313,199.3550,-30.5264,19.8092,
4.343724,0.3537,0.3222,0.9838,1.4836,-1.0643,1.2937,-0.0405,0.0194,0.0911,-2.8313,-40.9500,1.6313,199.3550,-30.5264,19.8092,
4.347260,0.3537,0.3222,0.9838,1.4836,-1.0643,1.2937,-0.0405,0.0194,0.0911,-2.7563,-40.9125,1.1813,199.3550,-30.5264,19.8092,
4.361293,0.3537,0.3222,0.9838,1.4836,-1.0643,1.2937,-0.0637,0.0184,0.0886,-2.7563,-40.9125,1.1813,199.3550,-30.5264,19.8092,
4.367203,0.3537,0.3222,0.9838,0.3851,-1.4833,0.9712,-0.0637,0.0184,0.0886,-2.7563,-40.9125,1.1813,199.3550,-30.5264,19.8092,
4.373368,0.3537,0.3222,0.9838,0.3851,-1.4833,0.9712,-0.0637,0.0184,0.0886,-2.7563,-40.9125,1.1813,198.9028,-29.8700,19.8807,
4.401126,0.3537,0.3222,0.9838,0.3851,-1.4833,0.9712,-0.0637,0.0184,0.0886,-2.6813,-40.7250,0.5625,198.9028,-29.8700,19.8807,
4.417844,0.3376,0.3401,0.9471,0.3851,-1.4833,0.9712,-0.0637,0.0184,0.0886,-2.6813,-40.7250,0.5625,198.9028,-29.8700,19.8807,
4.429880,0.1104,0.3195,0.9459,0.3851,-1.4833,0.9712,-0.0637,0.0184,0.0886,-2.6813,-40.7250,0.5625,198.9028,-29.8700,19.8807,
4.435459,0.1632,0.3236,0.9071,0.3851,-1.4833,0.9712,-0.0637,0.0184,0.0886,-2.6813,-40.7250,0.5625,198.9028,-29.8700,19.8807,
4.442606,0.4038,0.3124,0.9989,0.3851,-1.4833,0.9712,-0.0637,0.0184,0.0886,-2.6813,-40.7250,0.5625,198.9028,-29.8700,19.8807,
4.447572,0.0324,0.2931,0.9112,0.3851,-1.4833,0.9712,-0.0637,0.0184,0.0886,-2.6813,-40.7250,0.5625,198.9028,-29.8700,19.8807,
4.455264,0.0324,0.2931,0.9112,-1.5421,-1.3756,0.9896,-0.0637,0.0184,0.0886,-2.6813,-40.7250,0.5625,198.9028,-29.8700,19.8807,
4.460758,0.0324,0.2931,0.9112,-1.5421,-1.3756,0.9896,-0.0637,0.0184,0.0886,-2.6813,-40.7250,0.5625,198.4762,-29.1906,19.9838,
4.462802,0.0324,0.2931,0.9112,-1.5421,-1.3756,0.9896,-0.0929,0.0258,0.0832,-2.6813,-40.7250,0.5625,198.4762,-29.1906,19.9838,
4.471345,0.0324,0.2931,0.9112,-1.5421,-1.3756,0.9896,-0.0929,0.0258,0.0832,-2.5125,-40.4438,-0.0563,198.4762,-29.1906,19.9838,
4.494411,0.0324,0.2931,0.9112,-1.5421,-1.3756,0.9896,-0.1236,0.0430,0.0779,-2.5125,-40.4438,-0.0563,198.4762,-29.1906,19.9838,
4.497105,0.0324,0.2931,0.9112,-1.3626,-1.3809,0.4729,-0.1236,0.0430,0.0779,-2.5125,-40.4438,-0.0563,198.4762,-29.1906,19.9838,
4.499087,0.0324,0.2931,0.9112,-1.3626,-1.3809,0.4729,-0.1236,0.0430,0.0779,-2.5125,-40.4438,-0.0563,197.9343,-28.3821,19.9996,
4.511513,0.3361,0.2921,0.8651,-1.3626,-1.3809,0.4729,-0.1236,0.0430,0.0779,-2.5125,-40.4438,-0.0563,197.9343,-28.3821,19.9996,
4.513780,0.0302,0.2851,0.9095,-1.3626,-1.3809,0.4729,-0.1236,0.0430,0.0779,-2.5125,-40.4438,-0.0563,197.9343,-28.3821,19.9996,
4.515535,0.0270,0.2685,0.9437,-1.3626,-1.3809,0.4729,-0.1236,0.0430,0.0779,-2.5125,-40.4438,-0.0563,197.9343,-28.3821,19.9996,
4.517205,0.1759,0.2526,0.9938,-1.3626,-1.3809,0.4729,-0.1236,0.0430,0.0779,-2.5125,-40.4438,-0.0563,197.9343,-28.3821,19.9996,
4.518722,-0.1559,-0.0589,1.0129,-1.3626,-1.3809,0.4729,-0.1236,0.0430,0.0779,-2.5125,-40.4438,-0.0563,197.9343,-28.3821,19.9996,
4.540076,-0.1559,-0.0589,1.0129,-1.3626,-1.3809,0.4729,-0.1236,0.0430,0.0779,-2.4563,-40.1813,-0.8438,197.9343,-28.3821,19.9996,
4.560815,-0.1559,-0.0589,1.0129,-1.3626,-1.3809,0.4729,-0.1509,0.0709,0.0768,-2.4563,-40.1813,-0.8438,197.9343,-28.3821,19.9996,
4.562948,-0.1559,-0.0589,1.0129,-3.5571,-2.5749,2.0734,-0.1509,0.0709,0.0768,-2.4563,-40.1813,-0.8438,197.9343,-28.3821,19.9996,
4.564424,-0.1559,-0.0589,1.0129,-3.5571,-2.5749,2.0734,-0.1509,0.0709,0.0768,-2.4563,-40.1813,-0.8438,197.3715,-27.6084,19.9486,
4.610059,-0.1559,-0.0589,1.0129,-3.5571,-2.5749,2.0734,-0.1509,0.0709,0.0768,-2.9062,-39.7688,-1.7625,197.3715,-27.6084,19.9486,
4.612762,0.0234,0.0251,1.0463,-3.5571,-2.5749,2.0734,-0.1509,0.0709,0.0768,-2.9062,-39.7688,-1.7625,197.3715,-27.6084,19.9486,
4.614693,0.4619,0.4742,1.1658,-3.5571,-2.5749,2.0734,-0.1509,0.0709,0.0768,-2.9062,-39.7688,-1.7625,197.3715,-27.6084,19.9486,
4.616351,0.4062,0.3696,1.0304,-3.5571,-2.5749,2.0734,-0.1509,0.0709,0.0768,-2.9062,-39.7688,-1.7625,197.3715,-27.6084,19.9486,
4.618170,0.3119,0.2895,0.9098,-3.5571,-2.5749,2.0734,-0.1509,0.0709,0.0768,-2.9062,-39.7688,-1.7625,197.3715,-27.6084,19.9486,
4.620428,0.2442,0.3156,0.8946,-3.5571,-2.5749,2.0734,-0.1509,0.0709,0.0768,-2.9062,-39.7688,-1.7625,197.3715,-27.6084,19.9486,
4.626067,0.2442,0.3156,0.8946,-3.5571,-2.5749,2.0734,-0.1703,0.0909,0.0761,-2.9062,-39.7688,-1.7625,197.3715,-27.6084,19.9486,
4.628845,0.2442,0.3156,0.8946,-3.5571,-2.5749,2.0734,-0.1703,0.0909,0.0761,-2.9062,-39.7688,-1.7625,196.7567,-26.8541,19.8577,
4.631603,0.2442,0.3156,0.8946,0.3649,-1.1477,1.3332,-0.1703,0.0909,0.0761,-2.9062,-39.7688,-1.7625,196.7567,-26.8541,19.8577,
4.680515,0.2442,0.3156,0.8946,0.3649,-1.1477,1.3332,-0.1703,0.0909,0.0761,-3.3375,-39.3375,-2.5312,196.7567,-26.8541,19.8577,
4.693511,0.2442,0.3156,0.8946,-1.2568,-1.7122,0.7823,-0.1703,0.0909,0.0761,-3.3375,-39.3375,-2.5312,196.7567,-26.8541,19.8577,
4.696305,0.2442,0.3156,0.8946,-1.2568,-1.7122,0.7823,-0.1715,0.1000,0.0745,-3.3375,-39.3375,-2.5312,196.7567,-26.8541,19.8577,
4.698994,0.2442,0.3156,0.8946,-1.2568,-1.7122,0.7823,-0.1715,0.1000,0.0745,-3.3375,-39.3375,-2.5312,196.0034,-26.0527,19.6694,
4.708441,0.2423,0.2841,0.9205,-1.2568,-1.7122,0.7823,-0.1715,0.1000,0.0745,-3.3375,-39.3375,-2.5312,196.0034,-26.0527,19.6694,
4.710842,0.2320,0.2394,0.9173,-1.2568,-1.7122,0.7823,-0.1715,0.1000,0.0745,-3.3375,-39.3375,-2.5312,196.0034,-26.0527,19.6694,
4.713266,0.3041,0.2074,0.9701,-1.2568,-1.7122,0.7823,-0.1715,0.1000,0.0745,-3.3375,-39.3375,-2.5312,196.0034,-26.0527,19.6694,
4.715614,0.2437,0.1678,0.9457,-1.2568,-1.7122,0.7823,-0.1715,0.1000,0.0745,-3.3375,-39.3375,-2.5312,196.0034,-26.0527,19.6694,
4.717774,0.2191,0.0877,0.9491,-1.2568,-1.7122,0.7823,-0.1715,0.1000,0.0745,-3.3375,-39.3375,-2.5312,196.0034,-26.0527,19.6694,
4.749723,0.2191,0.0877,0.9491,-1.2568,-1.7122,0.7823,-0.1715,0.1000,0.0745,-3.8438,-39.0938,-3.4125,196.0034,-26.0527,19.6694,
4.762921,0.2191,0.0877,0.9491,-1.2636,-2.6884,1.4088,-0.1715,0.1000,0.0745,-3.8438,-39.0938,-3.4125,196.0034,-26.0527,19.6694,
4.773468,0.2191,0.0877,0.9491,-1.2636,-2.6884,1.4088,-0.1715,0.1000,0.0745,-3.8438,-39.0938,-3.4125,195.1925,-25.2249,19.4743,
4.779908,0.2191,0.0877,0.9491,-1.2636,-2.6884,1.4088,-0.1567,0.1100,0.0823,-3.8438,-39.0938,-3.4125,195.1925,-25.2249,19.4743,
4.806832,0.1560,0.2205,1.0869,-1.2636,-2.6884,1.4088,-0.1567,0.1100,0.0823,-3.8438,-39.0938,-3.4125,195.1925,-25.2249,19.4743,
4.809789,0.1104,0.2039,1.0451,-1.2636,-2.6884,1.4088,-0.1567,0.1100,0.0823,-3.8438,-39.0938,-3.4125,195.1925,-25.2249,19.4743,
4.811981,0.1705,0.1390,0.9527,-1.2636,-2.6884,1.4088,-0.1567,0.1100,0.0823,-3.8438,-39.0938,-3.4125,195.1925,-25.2249,19.4743,
4.814242,0.1465,0.2355,1.0053,-1.2636,-2.6884,1.4088,-0.1567,0.1100,0.0823,-3.8438,-39.0938,-3.4125,195.1925,-25.2249,19.4743,
4.816342,0.0405,0.2965,1.0155,-1.2636,-2.6884,1.4088,-0.1567,0.1100,0.0823,-3.8438,-39.0938,-3.4125,195.1925,-25.2249,19.4743,
4.820406,0.0405,0.2965,1.0155,-1.2636,-2.6884,1.4088,-0.1567,0.1100,0.0823,-4.2563,-38.6438,-4.2375,195.1925,-25.2249,19.4743,
4.826281,0.0405,0.2965,1.0155,-1.4971,-1.5316,1.4186,-0.1567,0.1100,0.0823,-4.2563,-38.6438,-4.2375,195.1925,-25.2249,19.4743,
4.828833,0.0405,0.2965,1.0155,-1.4971,-1.5316,1.4186,-0.1567,0.1100,0.0823,-4.2563,-38.6438,-4.2375,194.3190,-24.4700,19.1708,
4.831111,0.0405,0.2965,1.0155,-1.4971,-1.5316,1.4186,-0.1453,0.1390,0.1108,-4.2563,-38.6438,-4.2375,194.3190,-24.4700,19.1708,
4.889466,0.0405,0.2965,1.0155,-1.4971,-1.5316,1.4186,-0.1453,0.1390,0.1108,-4.5563,-38.2688,-5.0250,194.3190,-24.4700,19.1708,
4.893592,0.0405,0.2965,1.0155,-1.4971,-1.5316,1.4186,-0.1453,0.1390,0.1108,-4.5563,-38.2688,-5.0250,193.4582,-23.7947,18.8559,
4.895543,0.0405,0.2965,1.0155,-1.3696,-2.4111,0.5582,-0.1453,0.1390,0.1108,-4.5563,-38.2688,-5.0250,193.4582,-23.7947,18.8559,
4.897430,0.0405,0.2965,1.0155,-1.3696,-2.4111,0.5582,-0.1467,0.1821,0.1468,-4.5563,-38.2688,-5.0250,193.4582,-23.7947,18.8559,
4.906045,0.1986,0.3254,0.9696,-1.3696,-2.4111,0.5582,-0.1467,0.1821,0.1468,-4.5563,-38.2688,-5.0250,193.4582,-23.7947,18.8559,
4.907940,0.2166,0.1615,0.9288,-1.3696,-2.4111,0.5582,-0.1467,0.1821,0.1468,-4.5563,-38.2688,-5.0250,193.4582,-23.7947,18.8559,
4.909340,0.0004,0.1971,0.9762,-1.3696,-2.4111,0.5582,-0.1467,0.1821,0.1468,-4.5563,-38.2688,-5.0250,193.4582,-23.7947,18.8559,
4.910932,0.0414,0.2821,1.0136,-1.3696,-2.4111,0.5582,-0.1467,0.1821,0.1468,-4.5563,-38.2688,-5.0250,193.4582,-23.7947,18.8559,
4.912552,0.4206,0.1978,0.9552,-1.3696,-2.4111,0.5582,-0.1467,0.1821,0.1468,-4.5563,-38.2688,-5.0250,193.4582,-23.7947,18.8559,
4.959711,0.4206,0.1978,0.9552,-1.3696,-2.4111,0.5582,-0.1467,0.1821,0.1468,-4.5563,-38.2688,-5.0250,192.5325,-23.0914,18.5041,
4.962701,0.4206,0.1978,0.9552,-1.3696,-2.4111,0.5582,-0.1467,0.1821,0.1468,-4.8563,-37.9875,-5.5875,192.5325,-23.0914,18.5041,
4.964894,0.4206,0.1978,0.9552,0.4352,-2.8935,-0.0986,-0.1467,0.1821,0.1468,-4.8563,-37.9875,-5.5875,192.5325,-23.0914,18.5041,
4.967345,0.4206,0.1978,0.9552,0.4352,-2.8935,-0.0986,-0.1450,0.2196,0.1621,-4.8563,-37.9875,-5.5875,192.5325,-23.0914,18.5041,
5.003647,0.2826,0.0762,0.8443,0.4352,-2.8935,-0.0986,-0.1450,0.2196,0.1621,-4.8563,-37.9875,-5.5875,192.5325,-23.0914,18.5041,
5.006651,0.0916,0.0518,0.8680,0.4352,-2.8935,-0.0986,-0.1450,0.2196,0.1621,-4.8563,-37.9875,-5.5875,192.5325,-23.0914,18.5041,
5.008856,0.2140,0.1451,0.9395,0.4352,-2.8935,-0.0986,-0.1450,0.2196,0.1621,-4.8563,-37.9875,-5.5875,192.5325,-23.0914,18.5041,
5.011041,0.1172,0.1798,0.9916,0.4352,-2.8935,-0.0986,-0.1450,0.2196,0.1621,-4.8563,-37.9875,-5.5875,192.5325,-23.0914,18.5041,
5.013160,-0.0570,0.2843,1.1160,0.4352,-2.8935,-0.0986,-0.1450,0.2196,0.1621,-4.8563,-37.9875,-5.5875,192.5325,-23.0914,18.5041,
5.026936,-0.0570,0.2843,1.1160,0.4352,-2.8935,-0.0986,-0.1242,0.2413,0.1480,-4.8563,-37.9875,-5.5875,192.5325,-23.0914,18.5041,
5.035380,-0.0570,0.2843,1.1160,-2.3687,-1.6562,1.4334,-0.1242,0.2413,0.1480,-4.8563,-37.9875,-5.5875,192.5325,-23.0914,18.5041,
5.045078,-0.0570,0.2843,1.1160,-2.3687,-1.6562,1.4334,-0.1242,0.2413,0.1480,-4.8563,-37.9875,-5.5875,191.7087,-22.4924,18.1969,
5.054328,-0.0570,0.2843,1.1160,-2.3687,-1.6562,1.4334,-0.1242,0.2413,0.1480,-5.0438,-37.8375,-6.2438,191.7087,-22.4924,18.1969,
5.092627,-0.0570,0.2843,1.1160,-2.3687,-1.6562,1.4334,-0.1006,0.2343,0.1175,-5.0438,-37.8375,-6.2438,191.7087,-22.4924,18.1969,
5.095817,-0.0570,0.2843,1.1160,-2.3687,-1.6562,1.4334,-0.1006,0.2343,0.1175,-5.0438,-37.8375,-6.2438,190.9134,-21.9201,17.8213,
5.098073,-0.0570,0.2843,1.1160,-2.0442,-0.6868,-0.1429,-0.1006,0.2343,0.1175,-5.0438,-37.8375,-6.2438,190.9134,-21.9201,17.8213,
5.100855,-0.0570,0.2843,1.1160,-2.0442,-0.6868,-0.1429,-0.1006,0.2343,0.1175,-5.0250,-37.6125,-6.7500,190.9134,-21.9201,17.8213,
5.103109,0.2010,0.3136,1.0658,-2.0442,-0.6868,-0.1429,-0.1006,0.2343,0.1175,-5.0250,-37.6125,-6.7500,190.9134,-21.9201,17.8213,
5.105152,0.2227,0.3596,0.9586,-2.0442,-0.6868,-0.1429,-0.1006,0.2343,0.1175,-5.0250,-37.6125,-6.7500,190.9134,-21.9201,17.8213,
5.107373,0.0412,0.2924,0.8932,-2.0442,-0.6868,-0.1429,-0.1006,0.2343,0.1175,-5.0250,-37.6125,-6.7500,190.9134,-21.9201,17.8213,
5.109484,0.0314,0.2699,0.9234,-2.0442,-0.6868,-0.1429,-0.1006,0.2343,0.1175,-5.0250,-37.6125,-6.7500,190.9134,-21.9201,17.8213,
5.111581,0.2359,0.1934,0.9129,-2.0442,-0.6868,-0.1429,-0.1006,0.2343,0.1175,-5.0250,-37.6125,-6.7500,190.9134,-21.9201,17.8213,
5.160358,0.2359,0.1934,0.9129,-0.9188,-2.1325,0.8547,-0.1006,0.2343,0.1175,-5.0250,-37.6125,-6.7500,190.9134,-21.9201,17.8213,
5.163510,0.2359,0.1934,0.9129,-0.9188,-2.1325,0.8547,-0.1006,0.2343,0.1175,-5.0250,-37.6125,-6.7500,190.3145,-21.4688,17.5266,
5.165715,0.2359,0.1934,0.9129,-0.9188,-2.1325,0.8547,-0.0992,0.2035,0.0870,-5.0250,-37.6125,-6.7500,190.3145,-21.4688,17.5266,
5.169850,0.2359,0.1934,0.9129,-0.9188,-2.1325,0.8547,-0.0992,0.2035,0.0870,-4.5188,-37.4438,-7.2188,190.3145,-21.4688,17.5266,
5.199243,0.2640,0.1439,0.9926,-0.9188,-2.1325,0.8547,-0.0992,0.2035,0.0870,-4.5188,-37.4438,-7.2188,190.3145,-21.4688,17.5266,
5.202123,0.0273,0.1485,0.9483,-0.9188,-2.1325,0.8547,-0.0992,0.2035,0.0870,-4.5188,-37.4438,-7.2188,190.3145,-21.4688,17.5266,
5.204202,0.2741,0.1829,1.1531,-0.9188,-2.1325,0.8547,-0.0992,0.2035,0.0870,-4.5188,-37.4438,-7.2188,190.3145,-21.4688,17.5266,
5.206328,0.2169,0.1344,1.1939,-0.9188,-2.1325,0.8547,-0.0992,0.2035,0.0870,-4.5188,-37.4438,-7.2188,190.3145,-21.4688,17.5266,
5.208404,0.0102,0.1842,0.6740,-0.9188,-2.1325,0.8547,-0.0992,0.2035,0.0870,-4.5188,-37.4438,-7.2188,190.3145,-21.4688,17.5266,
5.230157,0.0102,0.1842,0.6740,-0.9188,-2.1325,0.8547,-0.1168,0.1640,0.0593,-4.5188,-37.4438,-7.2188,190.3145,-21.4688,17.5266,
5.237908,0.0102,0.1842,0.6740,-2.3717,-1.3006,-1.9015,-0.1168,0.1640,0.0593,-4.5188,-37.4438,-7.2188,190.3145,-21.4688,17.5266,
5.245032,0.0102,0.1842,0.6740,-2.3717,-1.3006,-1.9015,-0.1168,0.1640,0.0593,-4.5188,-37.4438,-7.2188,189.8095,-20.9754,17.2749,
5.251647,0.0102,0.1842,0.6740,-2.3717,-1.3006,-1.9015,-0.1168,0.1640,0.0593,-4.0312,-37.2000,-7.9688,189.8095,-20.9754,17.2749,
5.293911,0.0102,0.1842,0.6740,-2.8911,-2.2063,0.4540,-0.1168,0.1640,0.0593,-4.0312,-37.2000,-7.9688,189.8095,-20.9754,17.2749,
5.304722,0.0102,0.1842,0.6740,-2.8911,-2.2063,0.4540,-0.1168,0.1640,0.0593,-4.0312,-37.2000,-7.9688,189.3506,-20.4744,16.9671,
5.316140,0.0102,0.1842,0.6740,-2.8911,-2.2063,0.4540,-0.1408,0.1299,0.0347,-4.0312,-37.2000,-7.9688,189.3506,-20.4744,16.9671,
5.323113,0.1001,0.1265,0.6572,-2.8911,-2.2063,0.4540,-0.1408,0.1299,0.0347,-4.0312,-37.2000,-7.9688,189.3506,-20.4744,16.9671,
5.326400,0.1915,0.0889,1.1069,-2.8911,-2.2063,0.4540,-0.1408,0.1299,0.0347,-4.0312,-37.2000,-7.9688,189.3506,-20.4744,16.9671,
5.329273,0.0026,0.1172,0.9797,-2.8911,-2.2063,0.4540,-0.1408,0.1299,0.0347,-4.0312,-37.2000,-7.9688,189.3506,-20.4744,16.9671,
5.332580,0.1238,0.0791,1.2418,-2.8911,-2.2063,0.4540,-0.1408,0.1299,0.0347,-4.0312,-37.2000,-7.9688,189.3506,-20.4744,16.9671,
5.336320,0.1900,0.0708,1.2755,-2.8911,-2.2063,0.4540,-0.1408,0.1299,0.0347,-4.0312,-37.2000,-7.9688,189.3506,-20.4744,16.9671,
5.340620,0.1900,0.0708,1.2755,-2.8911,-2.2063,0.4540,-0.1408,0.1299,0.0347,-3.5063,-36.8063,-8.8125,189.3506,-20.4744,16.9671,
5.360771,0.1900,0.0708,1.2755,-2.8911,-2.2063,0.4540,-0.1739,0.1136,0.0229,-3.5063,-36.8063,-8.8125,189.3506,-20.4744,16.9671,
5.370661,0.1900,0.0708,1.2755,-0.2018,-2.1920,-4.1918,-0.1739,0.1136,0.0229,-3.5063,-36.8063,-8.8125,189.3506,-20.4744,16.9671,
5.379991,0.1900,0.0708,1.2755,-0.2018,-2.1920,-4.1918,-0.1739,0.1136,0.0229,-3.5063,-36.8063,-8.8125,188.9092,-19.9602,16.5396,
5.384727,0.1900,0.0708,1.2755,-0.2018,-2.1920,-4.1918,-0.1739,0.1136,0.0229,-3.0938,-36.5250,-9.6375,188.9092,-19.9602,16.5396,
5.397170,0.1450,0.1043,0.7180,-0.2018,-2.1920,-4.1918,-0.1739,0.1136,0.0229,-3.0938,-36.5250,-9.6375,188.9092,-19.9602,16.5396,
5.407175,0.2520,0.1055,0.4096,-0.2018,-2.1920,-4.1918,-0.1739,0.1136,0.0229,-3.0938,-36.5250,-9.6375,188.9092,-19.9602,16.5396,
5.415426,0.1079,0.0483,0.9422,-0.2018,-2.1920,-4.1918,-0.1739,0.1136,0.0229,-3.0938,-36.5250,-9.6375,188.9092,-19.9602,16.5396,
5.420597,-0.1643,-0.0001,1.9508,-0.2018,-2.1920,-4.1918,-0.1739,0.1136,0.0229,-3.0938,-36.5250,-9.6375,188.9092,-19.9602,16.5396,
5.422428,0.0490,0.0391,1.1042,-0.2018,-2.1920,-4.1918,-0.1739,0.1136,0.0229,-3.0938,-36.5250,-9.6375,188.9092,-19.9602,16.5396,
5.427861,0.0490,0.0391,1.1042,-0.2018,-2.1920,-4.1918,-0.2200,0.1286,0.0331,-3.0938,-36.5250,-9.6375,188.9092,-19.9602,16.5396,
5.430493,0.0490,0.0391,1.1042,-1.3515,-2.6077,-0.9659,-0.2200,0.1286,0.0331,-3.0938,-36.5250,-9.6375,188.9092,-19.9602,16.5396,
5.432270,0.0490,0.0391,1.1042,-1.3515,-2.6077,-0.9659,-0.2200,0.1286,0.0331,-3.0938,-36.5250,-9.6375,188.3855,-19.3034,15.9306,
5.450795,0.0490,0.0391,1.1042,-1.3515,-2.6077,-0.9659,-0.2200,0.1286,0.0331,-2.6625,-35.9438,-10.5563,188.3855,-19.3034,15.9306,
5.494685,0.0490,0.0391,1.1042,-1.3515,-2.6077,-0.9659,-0.2647,0.1762,0.0607,-2.6625,-35.9438,-10.5563,188.3855,-19.3034,15.9306,
5.497706,0.0490,0.0391,1.1042,-1.9468,-2.6175,1.0280,-0.2647,0.1762,0.0607,-2.6625,-35.9438,-10.5563,188.3855,-19.3034,15.9306,
5.500185,0.0490,0.0391,1.1042,-1.9468,-2.6175,1.0280,-0.2647,0.1762,0.0607,-2.6625,-35.9438,-10.5563,187.9149,-18.5993,15.3009,
5.502572,0.1338,0.0566,0.7986,-1.9468,-2.6175,1.0280,-0.2647,0.1762,0.0607,-2.6625,-35.9438,-10.5563,187.9149,-18.5993,15.3009,
5.504889,0.0302,0.0437,1.0774,-1.9468,-2.6175,1.0280,-0.2647,0.1762,0.0607,-2.6625,-35.9438,-10.5563,187.9149,-18.5993,15.3009,
5.507190,0.0757,0.0452,0.9364,-1.9468,-2.6175,1.0280,-0.2647,0.1762,0.0607,-2.6625,-35.9438,-10.5563,187.9149,-18.5993,15.3009,
5.509349,0.0432,0.0376,1.0727,-1.9468,-2.6175,1.0280,-0.2647,0.1762,0.0607,-2.6625,-35.9438,-10.5563,187.9149,-18.5993,15.3009,
5.511488,0.0368,0.0364,1.0536,-1.9468,-2.6175,1.0280,-0.2647,0.1762,0.0607,-2.6625,-35.9438,-10.5563,187.9149,-18.5993,15.3009,
5.521131,0.0368,0.0364,1.0536,-1.9468,-2.6175,1.0280,-0.2647,0.1762,0.0607,-2.2875,-35.4000,-11.5688,187.9149,-18.5993,15.3009,
5.560468,0.0368,0.0364,1.0536,-1.9468,-2.6175,1.0280,-0.2647,0.1762,0.0607,-2.2875,-35.4000,-11.5688,187.4030,-17.8307,14.5614,
5.563605,0.0368,0.0364,1.0536,-2.0591,-2.5931,1.0195,-0.2647,0.1762,0.0607,-2.2875,-35.4000,-11.5688,187.4030,-17.8307,14.5614,
5.566049,0.0368,0.0364,1.0536,-2.0591,-2.5931,1.0195,-0.2855,0.2307,0.0863,-2.2875,-35.4000,-11.5688,187.4030,-17.8307,14.5614,
5.590429,0.0368,0.0364,1.0536,-2.0591,-2.5931,1.0195,-0.2855,0.2307,0.0863,-1.8563,-34.9125,-12.3563,187.4030,-17.8307,14.5614,
5.593614,0.0647,0.0405,0.9505,-2.0591,-2.5931,1.0195,-0.2855,0.2307,0.0863,-1.8563,-34.9125,-12.3563,187.4030,-17.8307,14.5614,
5.595899,0.0436,0.0327,1.0107,-2.0591,-2.5931,1.0195,-0.2855,0.2307,0.0863,-1.8563,-34.9125,-12.3563,187.4030,-17.8307,14.5614,
5.597909,0.0341,0.0310,1.0207,-2.0591,-2.5931,1.0195,-0.2855,0.2307,0.0863,-1.8563,-34.9125,-12.3563,187.4030,-17.8307,14.5614,
5.600199,0.0331,0.0300,1.0148,-2.0591,-2.5931,1.0195,-0.2855,0.2307,0.0863,-1.8563,-34.9125,-12.3563,187.4030,-17.8307,14.5614,
5.602247,0.0261,0.0251,1.0402,-2.0591,-2.5931,1.0195,-0.2855,0.2307,0.0863,-1.8563,-34.9125,-12.3563,187.4030,-17.8307,14.5614,
5.626887,0.0261,0.0251,1.0402,-2.1473,-2.5452,1.1468,-0.2855,0.2307,0.0863,-1.8563,-34.9125,-12.3563,187.4030,-17.8307,14.5614,
5.630214,0.0261,0.0251,1.0402,-2.1473,-2.5452,1.1468,-0.2795,0.2618,0.0940,-1.8563,-34.9125,-12.3563,187.4030,-17.8307,14.5614,
5.632397,0.0261,0.0251,1.0402,-2.1473,-2.5452,1.1468,-0.2795,0.2618,0.0940,-1.8563,-34.9125,-12.3563,186.9565,-16.9896,13.8807,
5.660644,0.0261,0.0251,1.0402,-2.1473,-2.5452,1.1468,-0.2795,0.2618,0.0940,-1.5750,-34.4062,-13.1813,186.9565,-16.9896,13.8807,
5.692996,0.0261,0.0249,1.0275,-2.1473,-2.5452,1.1468,-0.2795,0.2618,0.0940,-1.5750,-34.4062,-13.1813,186.9565,-16.9896,13.8807,
5.703322,0.0292,0.0271,1.0065,-2.1473,-2.5452,1.1468,-0.2795,0.2618,0.0940,-1.5750,-34.4062,-13.1813,186.9565,-16.9896,13.8807,
5.711551,0.0217,0.0212,1.0387,-2.1473,-2.5452,1.1468,-0.2795,0.2618,0.0940,-1.5750,-34.4062,-13.1813,186.9565,-16.9896,13.8807,
5.716455,0.0268,0.0210,1.0185,-2.1473,-2.5452,1.1468,-0.2795,0.2618,0.0940,-1.5750,-34.4062,-13.1813,186.9565,-16.9896,13.8807,
5.722073,0.0319,0.0239,1.0087,-2.1473,-2.5452,1.1468,-0.2795,0.2618,0.0940,-1.5750,-34.4062,-13.1813,186.9565,-16.9896,13.8807,
5.726577,0.0319,0.0239,1.0087,-2.1473,-2.5452,1.1468,-0.2795,0.2618,0.0940,-1.5750,-34.4062,-13.1813,186.5876,-16.0941,13.2932,
5.730650,0.0319,0.0239,1.0087,-2.0783,-2.4378,0.7849,-0.2795,0.2618,0.0940,-1.5750,-34.4062,-13.1813,186.5876,-16.0941,13.2932,
5.735090,0.0319,0.0239,1.0087,-2.0783,-2.4378,0.7849,-0.2604,0.2599,0.0811,-1.5750,-34.4062,-13.1813,186.5876,-16.0941,13.2932,
5.740168,0.0319,0.0239,1.0087,-2.0783,-2.4378,0.7849,-0.2604,0.2599,0.0811,-1.2375,-34.0875,-13.9125,186.5876,-16.0941,13.2932,
5.760926,0.0319,0.0239,1.0087,-2.0783,-2.4378,0.7849,-0.2393,0.2383,0.0584,-1.2375,-34.0875,-13.9125,186.5876,-16.0941,13.2932,
5.770728,0.0319,0.0239,1.0087,-1.9112,-2.2665,0.7067,-0.2393,0.2383,0.0584,-1.2375,-34.0875,-13.9125,186.5876,-16.0941,13.2932,
5.779066,0.0319,0.0239,1.0087,-1.9112,-2.2665,0.7067,-0.2393,0.2383,0.0584,-1.2375,-34.0875,-13.9125,186.2824,-15.2309,12.7508,
5.789415,0.0300,0.0237,1.0099,-1.9112,-2.2665,0.7067,-0.2393,0.2383,0.0584,-1.2375,-34.0875,-13.9125,186.2824,-15.2309,12.7508,
5.797145,0.0319,0.0269,1.0036,-1.9112,-2.2665,0.7067,-0.2393,0.2383,0.0584,-1.2375,-34.0875,-13.9125,186.2824,-15.2309,12.7508,
5.800937,0.0285,0.0222,1.0158,-1.9112,-2.2665,0.7067,-0.2393,0.2383,0.0584,-1.2375,-34.0875,-13.9125,186.2824,-15.2309,12.7508,
5.802731,0.0349,0.0242,1.0112,-1.9112,-2.2665,0.7067,-0.2393,0.2383,0.0584,-1.2375,-34.0875,-13.9125,186.2824,-15.2309,12.7508,
5.804386,0.0336,0.0320,1.0031,-1.9112,-2.2665,0.7067,-0.2393,0.2383,0.0584,-1.2375,-34.0875,-13.9125,186.2824,-15.2309,12.7508,
5.806164,0.0336,0.0320,1.0031,-1.9112,-2.2665,0.7067,-0.2393,0.2383,0.0584,-0.8813,-33.8438,-14.4188,186.2824,-15.2309,12.7508,
5.827253,0.0336,0.0320,1.0031,-1.6404,-2.1224,0.6099,-0.2393,0.2383,0.0584,-0.8813,-33.8438,-14.4188,186.2824,-15.2309,12.7508,
5.830616,0.0336,0.0320,1.0031,-1.6404,-2.1224,0.6099,-0.2197,0.2136,0.0386,-0.8813,-33.8438,-14.4188,186.2824,-15.2309,12.7508,
5.832906,0.0336,0.0320,1.0031,-1.6404,-2.1224,0.6099,-0.2197,0.2136,0.0386,-0.8813,-33.8438,-14.4188,186.0301,-14.3700,12.2764,
5.869984,0.0336,0.0320,1.0031,-1.6404,-2.1224,0.6099,-0.2197,0.2136,0.0386,-0.5813,-33.5625,-14.7563,186.0301,-14.3700,12.2764,
5.887545,0.0414,0.0266,1.0119,-1.6404,-2.1224,0.6099,-0.2197,0.2136,0.0386,-0.5813,-33.5625,-14.7563,186.0301,-14.3700,12.2764,
5.890080,0.0424,0.0278,1.0077,-1.6404,-2.1224,0.6099,-0.2197,0.2136,0.0386,-0.5813,-33.5625,-14.7563,186.0301,-14.3700,12.2764,
5.892299,0.0449,0.0264,1.0094,-1.6404,-2.1224,0.6099,-0.2197,0.2136,0.0386,-0.5813,-33.5625,-14.7563,186.0301,-14.3700,12.2764,
5.894498,0.0454,0.0256,1.0102,-1.6404,-2.1224,0.6099,-0.2197,0.2136,0.0386,-0.5813,-33.5625,-14.7563,186.0301,-14.3700,12.2764,
5.896634,0.0468,0.0271,1.0109,-1.6404,-2.1224,0.6099,-0.2197,0.2136,0.0386,-0.5813,-33.5625,-14.7563,186.0301,-14.3700,12.2764,
5.898877,0.0468,0.0271,1.0109,-1.6404,-2.1224,0.6099,-0.2020,0.1910,0.0271,-0.5813,-33.5625,-14.7563,186.0301,-14.3700,12.2764,
5.901030,0.0468,0.0271,1.0109,-1.5674,-1.9717,0.5536,-0.2020,0.1910,0.0271,-0.5813,-33.5625,-14.7563,186.0301,-14.3700,12.2764,
5.903284,0.0468,0.0271,1.0109,-1.5674,-1.9717,0.5536,-0.2020,0.1910,0.0271,-0.5813,-33.5625,-14.7563,185.8483,-13.5397,11.8970,
5.943469,0.0468,0.0271,1.0109,-1.5674,-1.9717,0.5536,-0.2020,0.1910,0.0271,-0.4688,-33.3000,-14.8688,185.8483,-13.5397,11.8970,
5.962496,0.0468,0.0271,1.0109,-1.4552,-1.8410,0.5162,-0.2020,0.1910,0.0271,-0.4688,-33.3000,-14.8688,185.8483,-13.5397,11.8970,
5.972812,0.0468,0.0271,1.0109,-1.4552,-1.8410,0.5162,-0.2020,0.1910,0.0271,-0.4688,-33.3000,-14.8688,185.7039,-12.7230,11.5704,
5.981136,0.0468,0.0271,1.0109,-1.4552,-1.8410,0.5162,-0.1852,0.1700,0.0224,-0.4688,-33.3000,-14.8688,185.7039,-12.7230,11.5704,
5.987451,0.0502,0.0276,1.0092,-1.4552,-1.8410,0.5162,-0.1852,0.1700,0.0224,-0.4688,-33.3000,-14.8688,185.7039,-12.7230,11.5704,
5.991755,0.0505,0.0313,1.0043,-1.4552,-1.8410,0.5162,-0.1852,0.1700,0.0224,-0.4688,-33.3000,-14.8688,185.7039,-12.7230,11.5704,
5.996262,0.0515,0.0295,1.0063,-1.4552,-1.8410,0.5162,-0.1852,0.1700,0.0224,-0.4688,-33.3000,-14.8688,185.7039,-12.7230,11.5704,
6.001230,0.0522,0.0286,1.0094,-1.4552,-1.8410,0.5162,-0.1852,0.1700,0.0224,-0.4688,-33.3000,-14.8688,185.7039,-12.7230,11.5704,
6.002899,0.0527,0.0303,1.0077,-1.4552,-1.8410,0.5162,-0.1852,0.1700,0.0224,-0.4688,-33.3000,-14.8688,185.7039,-12.7230,11.5704,
6.011517,0.0527,0.0303,1.0077,-1.4552,-1.8410,0.5162,-0.1852,0.1700,0.0224,-0.3188,-33.1875,-15.0000,185.7039,-12.7230,11.5704,
6.029468,0.0527,0.0303,1.0077,-1.4552,-1.8410,0.5162,-0.1686,0.1491,0.0220,-0.3188,-33.1875,-15.0000,185.7039,-12.7230,11.5704,
6.038819,0.0527,0.0303,1.0077,-1.3475,-1.7001,0.4820,-0.1686,0.1491,0.0220,-0.3188,-33.1875,-15.0000,185.7039,-12.7230,11.5704,
6.045739,0.0527,0.0303,1.0077,-1.3475,-1.7001,0.4820,-0.1686,0.1491,0.0220,-0.3188,-33.1875,-15.0000,185.4440,-11.9590,11.0717,
6.080020,0.0527,0.0303,1.0077,-1.3475,-1.7001,0.4820,-0.1686,0.1491,0.0220,-0.3000,-33.2250,-14.9813,185.4440,-11.9590,11.0717,
6.084932,0.0552,0.0300,1.0068,-1.3475,-1.7001,0.4820,-0.1686,0.1491,0.0220,-0.3000,-33.2250,-14.9813,185.4440,-11.9590,11.0717,
6.087271,0.0542,0.0308,1.0094,-1.3475,-1.7001,0.4820,-0.1686,0.1491,0.0220,-0.3000,-33.2250,-14.9813,185.4440,-11.9590,11.0717,
6.089359,0.0547,0.0308,1.0077,-1.3475,-1.7001,0.4820,-0.1686,0.1491,0.0220,-0.3000,-33.2250,-14.9813,185.4440,-11.9590,11.0717,
6.091434,0.0540,0.0320,1.0085,-1.3475,-1.7001,0.4820,-0.1686,0.1491,0.0220,-0.3000,-33.2250,-14.9813,185.4440,-11.9590,11.0717,
6.093413,0.0569,0.0330,1.0087,-1.3475,-1.7001,0.4820,-0.1686,0.1491,0.0220,-0.3000,-33.2250,-14.9813,185.4440,-11.9590,11.0717,
6.095459,0.0569,0.0330,1.0087,-1.3475,-1.7001,0.4820,-0.1686,0.1491,0.0220,-0.3000,-33.2250,-14.9813,185.1815,-11.2070,10.5497,
6.097704,0.0569,0.0330,1.0087,-1.3475,-1.7001,0.4820,-0.1523,0.1288,0.0233,-0.3000,-33.2250,-14.9813,185.1815,-11.2070,10.5497,
6.100071,0.0569,0.0330,1.0087,-1.2502,-1.5461,0.4258,-0.1523,0.1288,0.0233,-0.3000,-33.2250,-14.9813,185.1815,-11.2070,10.5497,
6.150261,0.0569,0.0330,1.0087,-1.2502,-1.5461,0.4258,-0.1523,0.1288,0.0233,-0.3938,-33.2438,-14.9438,185.1815,-11.2070,10.5497,
6.160488,0.0569,0.0330,1.0087,-1.1069,-1.4279,0.3665,-0.1523,0.1288,0.0233,-0.3938,-33.2438,-14.9438,185.1815,-11.2070,10.5497,
6.163255,0.0569,0.0330,1.0087,-1.1069,-1.4279,0.3665,-0.1523,0.1288,0.0233,-0.3938,-33.2438,-14.9438,184.8902,-10.4728,9.9829,
6.165690,0.0569,0.0330,1.0087,-1.1069,-1.4279,0.3665,-0.1366,0.1104,0.0234,-0.3938,-33.2438,-14.9438,184.8902,-10.4728,9.9829,
6.181866,0.0569,0.0305,1.0087,-1.1069,-1.4279,0.3665,-0.1366,0.1104,0.0234,-0.3938,-33.2438,-14.9438,184.8902,-10.4728,9.9829,
6.184744,0.0584,0.0327,1.0077,-1.1069,-1.4279,0.3665,-0.1366,0.1104,0.0234,-0.3938,-33.2438,-14.9438,184.8902,-10.4728,9.9829,
6.187673,0.0596,0.0332,1.0072,-1.1069,-1.4279,0.3665,-0.1366,0.1104,0.0234,-0.3938,-33.2438,-14.9438,184.8902,-10.4728,9.9829,
6.191701,0.0613,0.0337,1.0070,-1.1069,-1.4279,0.3665,-0.1366,0.1104,0.0234,-0.3938,-33.2438,-14.9438,184.8902,-10.4728,9.9829,
6.195844,0.0667,0.0349,1.0068,-1.1069,-1.4279,0.3665,-0.1366,0.1104,0.0234,-0.3938,-33.2438,-14.9438,184.8902,-10.4728,9.9829,
6.221155,0.0667,0.0349,1.0068,-1.1069,-1.4279,0.3665,-0.1366,0.1104,0.0234,-0.3938,-33.2250,-14.8500,184.8902,-10.4728,9.9829,
6.229297,0.0667,0.0349,1.0068,-1.1069,-1.4279,0.3665,-0.1219,0.0945,0.0205,-0.3938,-33.2250,-14.8500,184.8902,-10.4728,9.9829,
6.233721,0.0667,0.0349,1.0068,-1.1069,-1.4279,0.3665,-0.1219,0.0945,0.0205,-0.3938,-33.2250,-14.8500,184.6298,-9.7654,9.4603,
6.238982,0.0667,0.0349,1.0068,-0.8942,-1.2844,0.3306,-0.1219,0.0945,0.0205,-0.3938,-33.2250,-14.8500,184.6298,-9.7654,9.4603,
6.281461,0.0681,0.0327,1.0082,-0.8942,-1.2844,0.3306,-0.1219,0.0945,0.0205,-0.3938,-33.2250,-14.8500,184.6298,-9.7654,9.4603,
6.290412,0.0713,0.0361,1.0072,-0.8942,-1.2844,0.3306,-0.1219,0.0945,0.0205,-0.3938,-33.2250,-14.8500,184.6298,-9.7654,9.4603,
6.298501,0.0737,0.0374,1.0075,-0.8942,-1.2844,0.3306,-0.1219,0.0945,0.0205,-0.3938,-33.2250,-14.8500,184.6298,-9.7654,9.4603,
6.302768,0.0735,0.0364,1.0102,-0.8942,-1.2844,0.3306,-0.1219,0.0945,0.0205,-0.3938,-33.2250,-14.8500,184.6298,-9.7654,9.4603,
6.308015,0.0735,0.0386,1.0085,-0.8942,-1.2844,0.3306,-0.1219,0.0945,0.0205,-0.3938,-33.2250,-14.8500,184.6298,-9.7654,9.4603,
6.312778,0.0735,0.0386,1.0085,-0.8942,-1.2844,0.3306,-0.1219,0.0945,0.0205,-0.5250,-33.1688,-14.7375,184.6298,-9.7654,9.4603,
6.315183,0.0735,0.0386,1.0085,-0.8942,-1.2844,0.3306,-0.1085,0.0799,0.0154,-0.5250,-33.1688,-14.7375,184.6298,-9.7654,9.4603,
6.317243,0.0735,0.0386,1.0085,-0.8050,-1.1617,0.2965,-0.1085,0.0799,0.0154,-0.5250,-33.1688,-14.7375,184.6298,-9.7654,9.4603,
6.319377,0.0735,0.0386,1.0085,-0.8050,-1.1617,0.2965,-0.1085,0.0799,0.0154,-0.5250,-33.1688,-14.7375,184.3215,-9.1001,8.8756,
6.362481,0.0735,0.0386,1.0085,-0.5752,-1.0138,0.2479,-0.1085,0.0799,0.0154,-0.5250,-33.1688,-14.7375,184.3215,-9.1001,8.8756,
6.371361,0.0735,0.0386,1.0085,-0.5752,-1.0138,0.2479,-0.0965,0.0656,0.0098,-0.5250,-33.1688,-14.7375,184.3215,-9.1001,8.8756,
6.380223,0.0735,0.0386,1.0085,-0.5752,-1.0138,0.2479,-0.0965,0.0656,0.0098,-0.5250,-33.1688,-14.7375,184.0522,-8.4614,8.3668,
6.384790,0.0735,0.0386,1.0085,-0.5752,-1.0138,0.2479,-0.0965,0.0656,0.0098,-0.6938,-33.1125,-14.7000,184.0522,-8.4614,8.3668,
6.389774,0.0742,0.0383,1.0063,-0.5752,-1.0138,0.2479,-0.0965,0.0656,0.0098,-0.6938,-33.1125,-14.7000,184.0522,-8.4614,8.3668,
6.394566,0.0803,0.0408,1.0068,-0.5752,-1.0138,0.2479,-0.0965,0.0656,0.0098,-0.6938,-33.1125,-14.7000,184.0522,-8.4614,8.3668,
6.400155,0.0845,0.0420,1.0048,-0.5752,-1.0138,0.2479,-0.0965,0.0656,0.0098,-0.6938,-33.1125,-14.7000,184.0522,-8.4614,8.3668,
6.402288,0.0869,0.0418,1.0048,-0.5752,-1.0138,0.2479,-0.0965,0.0656,0.0098,-0.6938,-33.1125,-14.7000,184.0522,-8.4614,8.3668,
6.404078,0.0864,0.0430,1.0048,-0.5752,-1.0138,0.2479,-0.0965,0.0656,0.0098,-0.6938,-33.1125,-14.7000,184.0522,-8.4614,8.3668,
6.427783,0.0864,0.0430,1.0048,-0.5752,-1.0138,0.2479,-0.0854,0.0512,0.0043,-0.6938,-33.1125,-14.7000,184.0522,-8.4614,8.3668,
6.431038,0.0864,0.0430,1.0048,-0.5752,-1.0138,0.2479,-0.0854,0.0512,0.0043,-0.6938,-33.1125,-14.7000,183.7704,-7.8641,7.8576,
6.433381,0.0864,0.0430,1.0048,-0.4889,-0.9154,0.2214,-0.0854,0.0512,0.0043,-0.6938,-33.1125,-14.7000,183.7704,-7.8641,7.8576,
6.435622,0.0864,0.0430,1.0048,-0.4889,-0.9154,0.2214,-0.0854,0.0512,0.0043,-0.8438,-33.2063,-14.6063,183.7704,-7.8641,7.8576,
6.477812,0.0879,0.0415,1.0046,-0.4889,-0.9154,0.2214,-0.0854,0.0512,0.0043,-0.8438,-33.2063,-14.6063,183.7704,-7.8641,7.8576,
6.481052,0.0850,0.0449,1.0050,-0.4889,-0.9154,0.2214,-0.0854,0.0512,0.0043,-0.8438,-33.2063,-14.6063,183.7704,-7.8641,7.8576,
6.483225,0.0891,0.0464,1.0009,-0.4889,-0.9154,0.2214,-0.0854,0.0512,0.0043,-0.8438,-33.2063,-14.6063,183.7704,-7.8641,7.8576,
6.485358,0.0911,0.0393,1.0104,-0.4889,-0.9154,0.2214,-0.0854,0.0512,0.0043,-0.8438,-33.2063,-14.6063,183.7704,-7.8641,7.8576,
6.487453,0.0896,0.0388,1.0116,-0.4889,-0.9154,0.2214,-0.0854,0.0512,0.0043,-0.8438,-33.2063,-14.6063,183.7704,-7.8641,7.8576,
6.494282,0.0896,0.0388,1.0116,-0.4889,-0.9154,0.2214,-0.0749,0.0373,-0.0003,-0.8438,-33.2063,-14.6063,183.7704,-7.8641,7.8576,
6.497212,0.0896,0.0388,1.0116,-0.4889,-0.9154,0.2214,-0.0749,0.0373,-0.0003,-0.8438,-33.2063,-14.6063,183.5063,-7.3045,7.3972,
6.499373,0.0896,0.0388,1.0116,-0.3725,-0.8657,0.1793,-0.0749,0.0373,-0.0003,-0.8438,-33.2063,-14.6063,183.5063,-7.3045,7.3972,
6.501054,0.0896,0.0388,1.0116,-0.3725,-0.8657,0.1793,-0.0749,0.0373,-0.0003,-0.9000,-33.3375,-14.6625,183.5063,-7.3045,7.3972,
6.560637,0.0896,0.0388,1.0116,-0.3725,-0.8657,0.1793,-0.0651,0.0260,-0.0025,-0.9000,-33.3375,-14.6625,183.5063,-7.3045,7.3972,
6.563841,0.0896,0.0388,1.0116,0.1451,-1.0875,0.5075,-0.0651,0.0260,-0.0025,-0.9000,-33.3375,-14.6625,183.5063,-7.3045,7.3972,
6.566090,0.0896,0.0388,1.0116,0.1451,-1.0875,0.5075,-0.0651,0.0260,-0.0025,-0.9000,-33.3375,-14.6625,183.2403,-6.7102,6.9711,
6.570106,0.0896,0.0388,1.0116,0.1451,-1.0875,0.5075,-0.0651,0.0260,-0.0025,-1.0312,-33.4125,-14.6625,183.2403,-6.7102,6.9711,
6.575929,0.1069,-0.0164,1.0507,0.1451,-1.0875,0.5075,-0.0651,0.0260,-0.0025,-1.0312,-33.4125,-14.6625,183.2403,-6.7102,6.9711,
6.578509,0.0984,0.0542,0.9948,0.1451,-1.0875,0.5075,-0.0651,0.0260,-0.0025,-1.0312,-33.4125,-14.6625,183.2403,-6.7102,6.9711,
6.580856,0.0862,0.0293,1.0236,0.1451,-1.0875,0.5075,-0.0651,0.0260,-0.0025,-1.0312,-33.4125,-14.6625,183.2403,-6.7102,6.9711,
6.583076,0.0828,0.0449,1.0260,0.1451,-1.0875,0.5075,-0.0651,0.0260,-0.0025,-1.0312,-33.4125,-14.6625,183.2403,-6.7102,6.9711,
6.585154,0.0652,0.1444,0.9855,0.1451,-1.0875,0.5075,-0.0651,0.0260,-0.0025,-1.0312,-33.4125,-14.6625,183.2403,-6.7102,6.9711,
6.626117,0.0652,0.1444,0.9855,0.1451,-1.0875,0.5075,-0.0651,0.0260,-0.0025,-1.0312,-33.4125,-14.6625,183.0348,-6.1134,6.6111,
6.628934,0.0652,0.1444,0.9855,-0.5215,-0.1208,0.7140,-0.0651,0.0260,-0.0025,-1.0312,-33.4125,-14.6625,183.0348,-6.1134,6.6111,
6.631166,0.0652,0.1444,0.9855,-0.5215,-0.1208,0.7140,-0.0612,0.0196,-0.0002,-1.0312,-33.4125,-14.6625,183.0348,-6.1134,6.6111,
6.639571,0.0652,0.1444,0.9855,-0.5215,-0.1208,0.7140,-0.0612,0.0196,-0.0002,-1.4625,-32.7000,-15.3563,183.0348,-6.1134,6.6111,
6.677080,0.0623,0.2304,1.0253,-0.5215,-0.1208,0.7140,-0.0612,0.0196,-0.0002,-1.4625,-32.7000,-15.3563,183.0348,-6.1134,6.6111,
6.688009,0.1639,0.0603,1.0566,-0.5215,-0.1208,0.7140,-0.0612,0.0196,-0.0002,-1.4625,-32.7000,-15.3563,183.0348,-6.1134,6.6111,
6.698854,0.2335,-0.0968,0.9415,-0.5215,-0.1208,0.7140,-0.0612,0.0196,-0.0002,-1.4625,-32.7000,-15.3563,183.0348,-6.1134,6.6111,
6.703594,0.1793,-0.2990,0.9632,-0.5215,-0.1208,0.7140,-0.0612,0.0196,-0.0002,-1.4625,-32.7000,-15.3563,183.0348,-6.1134,6.6111,
6.708707,0.1961,-0.4940,0.9317,-0.5215,-0.1208,0.7140,-0.0612,0.0196,-0.0002,-1.4625,-32.7000,-15.3563,183.0348,-6.1134,6.6111,
6.713258,0.1961,-0.4940,0.9317,-0.5215,-0.1208,0.7140,-0.0704,0.0073,0.0024,-1.4625,-32.7000,-15.3563,183.0348,-6.1134,6.6111,
6.717153,0.1961,-0.4940,0.9317,1.0334,-2.3849,-0.4282,-0.0704,0.0073,0.0024,-1.4625,-32.7000,-15.3563,183.0348,-6.1134,6.6111,
6.721265,0.1961,-0.4940,0.9317,1.0334,-2.3849,-0.4282,-0.0704,0.0073,0.0024,-1.4625,-32.7000,-15.3563,182.9288,-5.3984,6.3653,
6.723094,0.1961,-0.4940,0.9317,1.0334,-2.3849,-0.4282,-0.0704,0.0073,0.0024,-1.9313,-30.2438,-17.2125,182.9288,-5.3984,6.3653,
6.761226,0.1961,-0.4940,0.9317,1.0334,-2.3849,-0.4282,-0.0916,-0.0290,-0.0075,-1.9313,-30.2438,-17.2125,182.9288,-5.3984,6.3653,
6.769067,0.1961,-0.4940,0.9317,1.1141,-7.4765,-4.3302,-0.0916,-0.0290,-0.0075,-1.9313,-30.2438,-17.2125,182.9288,-5.3984,6.3653,
6.776441,0.1961,-0.4940,0.9317,1.1141,-7.4765,-4.3302,-0.0916,-0.0290,-0.0075,-1.9313,-30.2438,-17.2125,182.7671,-4.6966,5.9193,
6.784875,0.2486,-0.5094,0.8668,1.1141,-7.4765,-4.3302,-0.0916,-0.0290,-0.0075,-1.9313,-30.2438,-17.2125,182.7671,-4.6966,5.9193,
6.789040,-0.0250,-0.8255,0.6999,1.1141,-7.4765,-4.3302,-0.0916,-0.0290,-0.0075,-1.9313,-30.2438,-17.2125,182.7671,-4.6966,5.9193,
6.795347,-1.6352,-0.2614,4.3452,1.1141,-7.4765,-4.3302,-0.0916,-0.0290,-0.0075,-1.9313,-30.2438,-17.2125,182.7671,-4.6966,5.9193,
6.800744,-0.6240,0.0126,3.7628,1.1141,-7.4765,-4.3302,-0.0916,-0.0290,-0.0075,-1.9313,-30.2438,-17.2125,182.7671,-4.6966,5.9193,
6.802709,-0.1684,0.2519,0.8130,1.1141,-7.4765,-4.3302,-0.0916,-0.0290,-0.0075,-1.9313,-30.2438,-17.2125,182.7671,-4.6966,5.9193,
6.804451,-0.1684,0.2519,0.8130,1.1141,-7.4765,-4.3302,-0.0916,-0.0290,-0.0075,-1.7063,-25.7438,-23.3813,182.7671,-4.6966,5.9193,
6.829246,-0.1684,0.2519,0.8130,1.1141,-7.4765,-4.3302,-0.1133,-0.0746,-0.0397,-1.7063,-25.7438,-23.3813,182.7671,-4.6966,5.9193,
6.836274,-0.1684,0.2519,0.8130,-2.3254,1.7097,-1.4664,-0.1133,-0.0746,-0.0397,-1.7063,-25.7438,-23.3813,182.7671,-4.6966,5.9193,
6.843679,-0.1684,0.2519,0.8130,-2.3254,1.7097,-1.4664,-0.1133,-0.0746,-0.0397,-1.7063,-25.7438,-23.3813,182.7955,-4.0894,5.5622,
6.854997,-0.1684,0.2519,0.8130,-2.3254,1.7097,-1.4664,-0.1133,-0.0746,-0.0397,-1.0500,-20.3063,-25.8563,182.7955,-4.0894,5.5622,
6.871909,0.2577,0.3425,1.8787,-2.3254,1.7097,-1.4664,-0.1133,-0.0746,-0.0397,-1.0500,-20.3063,-25.8563,182.7955,-4.0894,5.5622,
6.874865,0.2751,0.2450,1.4035,-2.3254,1.7097,-1.4664,-0.1133,-0.0746,-0.0397,-1.0500,-20.3063,-25.8563,182.7955,-4.0894,5.5622,
6.876970,-0.0621,0.3774,1.2093,-2.3254,1.7097,-1.4664,-0.1133,-0.0746,-0.0397,-1.0500,-20.3063,-25.8563,182.7955,-4.0894,5.5622,
6.879327,-0.3128,0.2545,1.6962,-2.3254,1.7097,-1.4664,-0.1133,-0.0746,-0.0397,-1.0500,-20.3063,-25.8563,182.7955,-4.0894,5.5622,
6.881537,-0.4103,0.1030,1.1252,-2.3254,1.7097,-1.4664,-0.1133,-0.0746,-0.0397,-1.0500,-20.3063,-25.8563,182.7955,-4.0894,5.5622,
6.893769,-0.4103,0.1030,1.1252,-2.3254,1.7097,-1.4664,-0.1133,-0.0746,-0.0397,-1.0500,-20.3063,-25.8563,182.7647,-3.4726,5.0300,
6.897459,-0.4103,0.1030,1.1252,-2.3254,1.7097,-1.4664,-0.1212,-0.0635,-0.0750,-1.0500,-20.3063,-25.8563,182.7647,-3.4726,5.0300,
6.899951,-0.4103,0.1030,1.1252,-3.6090,2.3073,7.3241,-0.1212,-0.0635,-0.0750,-1.0500,-20.3063,-25.8563,182.7647,-3.4726,5.0300,
6.920656,-0.4103,0.1030,1.1252,-3.6090,2.3073,7.3241,-0.1212,-0.0635,-0.0750,-0.9000,-16.0500,-28.3313,182.7647,-3.4726,5.0300,
6.960369,-0.4103,0.1030,1.1252,-3.6090,2.3073,7.3241,-0.1127,0.0648,-0.0553,-0.9000,-16.0500,-28.3313,182.7647,-3.4726,5.0300,
6.963292,-0.4103,0.1030,1.1252,-6.4470,-1.7794,-0.8272,-0.1127,0.0648,-0.0553,-0.9000,-16.0500,-28.3313,182.7647,-3.4726,5.0300,
6.965489,-0.4103,0.1030,1.1252,-6.4470,-1.7794,-0.8272,-0.1127,0.0648,-0.0553,-0.9000,-16.0500,-28.3313,182.6251,-2.8357,4.3196,
6.967676,-0.4848,-0.0093,0.9032,-6.4470,-1.7794,-0.8272,-0.1127,0.0648,-0.0553,-0.9000,-16.0500,-28.3313,182.6251,-2.8357,4.3196,
6.969736,-0.5663,-0.1212,0.8861,-6.4470,-1.7794,-0.8272,-0.1127,0.0648,-0.0553,-0.9000,-16.0500,-28.3313,182.6251,-2.8357,4.3196,
6.971813,-0.6555,-0.1684,1.1133,-6.4470,-1.7794,-0.8272,-0.1127,0.0648,-0.0553,-0.9000,-16.0500,-28.3313,182.6251,-2.8357,4.3196,
6.973946,-0.7596,-0.2795,1.2740,-6.4470,-1.7794,-0.8272,-0.1127,0.0648,-0.0553,-0.9000,-16.0500,-28.3313,182.6251,-2.8357,4.3196,
6.976059,-0.7437,-0.4650,1.2552,-6.4470,-1.7794,-0.8272,-0.1127,0.0648,-0.0553,-0.9000,-16.0500,-28.3313,182.6251,-2.8357,4.3196,
6.991588,-0.7437,-0.4650,1.2552,-6.4470,-1.7794,-0.8272,-0.1127,0.0648,-0.0553,-1.0312,-13.4438,-30.3375,182.6251,-2.8357,4.3196,
7.029393,-0.7437,-0.4650,1.2552,-6.4470,-1.7794,-0.8272,-0.1127,0.0648,-0.0553,-1.0312,-13.4438,-30.3375,182.2288,-1.9871,3.3779,
7.041451,-0.7437,-0.4650,1.2552,-7.5503,-6.0260,2.7998,-0.1127,0.0648,-0.0553,-1.0312,-13.4438,-30.3375,182.2288,-1.9871,3.3779,
7.050694,-0.7437,-0.4650,1.2552,-7.5503,-6.0260,2.7998,-0.1195,0.2845,0.0782,-1.0312,-13.4438,-30.3375,182.2288,-1.9871,3.3779,
7.062610,-0.7437,-0.4650,1.2552,-7.5503,-6.0260,2.7998,-0.1195,0.2845,0.0782,-1.4062,-12.5813,-31.3313,182.2288,-1.9871,3.3779,
7.071322,-0.7425,-0.6037,1.2816,-7.5503,-6.0260,2.7998,-0.1195,0.2845,0.0782,-1.4062,-12.5813,-31.3313,182.2288,-1.9871,3.3779,
7.077677,-0.7430,-0.7347,1.1619,-7.5503,-6.0260,2.7998,-0.1195,0.2845,0.0782,-1.4062,-12.5813,-31.3313,182.2288,-1.9871,3.3779,
7.083262,-0.5434,-0.7977,1.3585,-7.5503,-6.0260,2.7998,-0.1195,0.2845,0.0782,-1.4062,-12.5813,-31.3313,182.2288,-1.9871,3.3779,
7.086953,-0.4867,-0.8842,1.6361,-7.5503,-6.0260,2.7998,-0.1195,0.2845,0.0782,-1.4062,-12.5813,-31.3313,182.2288,-1.9871,3.3779,
7.092049,-0.1657,-1.0378,1.7128,-7.5503,-6.0260,2.7998,-0.1195,0.2845,0.0782,-1.4062,-12.5813,-31.3313,182.2288,-1.9871,3.3779,
7.096541,-0.1657,-1.0378,1.7128,-7.5503,-6.0260,2.7998,-0.2078,0.4937,0.3203,-1.4062,-12.5813,-31.3313,182.2288,-1.9871,3.3779,
7.100515,-0.1657,-1.0378,1.7128,-4.5034,-9.2493,7.0577,-0.2078,0.4937,0.3203,-1.4062,-12.5813,-31.3313,182.2288,-1.9871,3.3779,
7.101961,-0.1657,-1.0378,1.7128,-4.5034,-9.2493,7.0577,-0.2078,0.4937,0.3203,-1.4062,-12.5813,-31.3313,181.6417,-0.9807,2.3324,
7.132321,-0.1657,-1.0378,1.7128,-4.5034,-9.2493,7.0577,-0.2078,0.4937,0.3203,-2.9250,-13.5188,-30.9000,181.6417,-0.9807,2.3324,
7.159883,-0.1657,-1.0378,1.7128,-4.5034,-9.2493,7.0577,-0.3998,0.5830,0.5337,-2.9250,-13.5188,-30.9000,181.6417,-0.9807,2.3324,
7.162811,-0.1657,-1.0378,1.7128,-4.5034,-9.2493,7.0577,-0.3998,0.5830,0.5337,-2.9250,-13.5188,-30.9000,181.0001,0.2577,1.4324,
7.165043,-0.1657,-1.0378,1.7128,-3.9041,-8.6352,-0.7873,-0.3998,0.5830,0.5337,-2.9250,-13.5188,-30.9000,181.0001,0.2577,1.4324,
7.167278,-0.1224,-1.0447,1.5098,-3.9041,-8.6352,-0.7873,-0.3998,0.5830,0.5337,-2.9250,-13.5188,-30.9000,181.0001,0.2577,1.4324,
7.169431,-0.3394,-0.9333,1.0707,-3.9041,-8.6352,-0.7873,-0.3998,0.5830,0.5337,-2.9250,-13.5188,-30.9000,181.0001,0.2577,1.4324,
7.171608,-0.3326,-0.8424,0.9635,-3.9041,-8.6352,-0.7873,-0.3998,0.5830,0.5337,-2.9250,-13.5188,-30.9000,181.0001,0.2577,1.4324,
7.173688,-0.1339,-0.7840,1.3629,-3.9041,-8.6352,-0.7873,-0.3998,0.5830,0.5337,-2.9250,-13.5188,-30.9000,181.0001,0.2577,1.4324,
7.176066,0.1548,-0.8116,1.5164,-3.9041,-8.6352,-0.7873,-0.3998,0.5830,0.5337,-2.9250,-13.5188,-30.9000,181.0001,0.2577,1.4324,
7.200490,0.1548,-0.8116,1.5164,-3.9041,-8.6352,-0.7873,-0.3998,0.5830,0.5337,-3.6375,-14.9063,-29.1375,181.0001,0.2577,1.4324,
7.226406,0.1548,-0.8116,1.5164,3.2891,-8.5520,1.9923,-0.3998,0.5830,0.5337,-3.6375,-14.9063,-29.1375,181.0001,0.2577,1.4324,
7.229188,0.1548,-0.8116,1.5164,3.2891,-8.5520,1.9923,-0.3998,0.5830,0.5337,-3.6375,-14.9063,-29.1375,180.2665,1.8073,0.6433,
7.231559,0.1548,-0.8116,1.5164,3.2891,-8.5520,1.9923,-0.6210,0.5068,0.5545,-3.6375,-14.9063,-29.1375,180.2665,1.8073,0.6433,
7.262401,0.3173,-0.8752,1.3092,3.2891,-8.5520,1.9923,-0.6210,0.5068,0.5545,-3.6375,-14.9063,-29.1375,180.2665,1.8073,0.6433,
7.265464,0.4531,-0.9709,0.9486,3.2891,-8.5520,1.9923,-0.6210,0.5068,0.5545,-3.6375,-14.9063,-29.1375,180.2665,1.8073,0.6433,
7.267899,0.4297,-0.9707,0.9520,3.2891,-8.5520,1.9923,-0.6210,0.5068,0.5545,-3.6375,-14.9063,-29.1375,180.2665,1.8073,0.6433,
7.269988,0.2931,-0.9719,0.8653,3.2891,-8.5520,1.9923,-0.6210,0.5068,0.5545,-3.6375,-14.9063,-29.1375,180.2665,1.8073,0.6433,
7.272038,0.1590,-0.9765,0.7443,3.2891,-8.5520,1.9923,-0.6210,0.5068,0.5545,-3.6375,-14.9063,-29.1375,180.2665,1.8073,0.6433,
7.274252,0.1590,-0.9765,0.7443,3.2891,-8.5520,1.9923,-0.6210,0.5068,0.5545,-4.3125,-18.2063,-25.5563,180.2665,1.8073,0.6433,
7.293252,0.1590,-0.9765,0.7443,3.2891,-8.5520,1.9923,-0.7748,0.3187,0.3923,-4.3125,-18.2063,-25.5563,180.2665,1.8073,0.6433,
7.295737,0.1590,-0.9765,0.7443,1.8527,-8.9148,-1.9834,-0.7748,0.3187,0.3923,-4.3125,-18.2063,-25.5563,180.2665,1.8073,0.6433,
7.298157,0.1590,-0.9765,0.7443,1.8527,-8.9148,-1.9834,-0.7748,0.3187,0.3923,-4.3125,-18.2063,-25.5563,179.5374,3.5226,-0.0282,
7.341211,0.1590,-0.9765,0.7443,1.8527,-8.9148,-1.9834,-0.7748,0.3187,0.3923,-6.2063,-24.5813,-21.1875,179.5374,3.5226,-0.0282,
7.365795,0.1590,-0.9765,0.7443,1.8527,-8.9148,-1.9834,-0.8359,0.1238,0.1998,-6.2063,-24.5813,-21.1875,179.5374,3.5226,-0.0282,
7.375760,0.1590,-0.9765,0.7443,-2.2537,-5.2421,-3.3519,-0.8359,0.1238,0.1998,-6.2063,-24.5813,-21.1875,179.5374,3.5226,-0.0282,
7.382444,-0.0035,-0.9374,0.4720,-2.2537,-5.2421,-3.3519,-0.8359,0.1238,0.1998,-6.2063,-24.5813,-21.1875,179.5374,3.5226,-0.0282,
7.387385,-0.1041,-0.8659,0.3474,-2.2537,-5.2421,-3.3519,-0.8359,0.1238,0.1998,-6.2063,-24.5813,-21.1875,179.5374,3.5226,-0.0282,
7.393243,-0.2126,-0.6741,0.5707,-2.2537,-5.2421,-3.3519,-0.8359,0.1238,0.1998,-6.2063,-24.5813,-21.1875,179.5374,3.5226,-0.0282,
7.400274,-0.3523,-0.4151,0.8494,-2.2537,-5.2421,-3.3519,-0.8359,0.1238,0.1998,-6.2063,-24.5813,-21.1875,179.5374,3.5226,-0.0282,
7.402338,0.1568,0.2142,0.8868,-2.2537,-5.2421,-3.3519,-0.8359,0.1238,0.1998,-6.2063,-24.5813,-21.1875,179.5374,3.5226,-0.0282,
7.404029,0.1568,0.2142,0.8868,-2.2537,-5.2421,-3.3519,-0.8359,0.1238,0.1998,-6.2063,-24.5813,-21.1875,178.9310,5.0658,-0.4890,
7.411964,0.1568,0.2142,0.8868,-2.2537,-5.2421,-3.3519,-0.8359,0.1238,0.1998,-8.1000,-30.8250,-17.1938,178.9310,5.0658,-0.4890,
7.431402,0.1568,0.2142,0.8868,-2.2537,-5.2421,-3.3519,-0.7921,0.0012,0.0972,-8.1000,-30.8250,-17.1938,178.9310,5.0658,-0.4890,
7.434352,0.1568,0.2142,0.8868,-2.2537,-5.2421,-3.3519,-0.7921,0.0012,0.0972,-8.1000,-30.8250,-17.1938,178.5873,6.2200,-0.5423,
7.436564,0.1568,0.2142,0.8868,4.9476,3.2049,3.6778,-0.7921,0.0012,0.0972,-8.1000,-30.8250,-17.1938,178.5873,6.2200,-0.5423,
7.461143,1.3502,0.5250,0.1307,4.9476,3.2049,3.6778,-0.7921,0.0012,0.0972,-8.1000,-30.8250,-17.1938,178.5873,6.2200,-0.5423,
7.470047,0.0449,0.0955,2.0680,4.9476,3.2049,3.6778,-0.7921,0.0012,0.0972,-8.1000,-30.8250,-17.1938,178.5873,6.2200,-0.5423,
7.477886,0.2432,-0.0176,2.5400,4.9476,3.2049,3.6778,-0.7921,0.0012,0.0972,-8.1000,-30.8250,-17.1938,178.5873,6.2200,-0.5423,
7.484760,0.6354,0.1629,1.3080,4.9476,3.2049,3.6778,-0.7921,0.0012,0.0972,-8.1000,-30.8250,-17.1938,178.5873,6.2200,-0.5423,
7.491302,-0.6274,0.2135,0.3435,4.9476,3.2049,3.6778,-0.7921,0.0012,0.0972,-8.1000,-30.8250,-17.1938,178.5873,6.2200,-0.5423,
7.497259,-0.6274,0.2135,0.3435,4.9476,3.2049,3.6778,-0.7921,0.0012,0.0972,-9.5063,-35.4750,-13.8750,178.5873,6.2200,-0.5423,
7.501593,-0.6274,0.2135,0.3435,4.9476,3.2049,3.6778,-0.5885,-0.0382,0.0958,-9.5063,-35.4750,-13.8750,178.5873,6.2200,-0.5423,
7.503381,-0.6274,0.2135,0.3435,4.9476,3.2049,3.6778,-0.5885,-0.0382,0.0958,-9.5063,-35.4750,-13.8750,178.2195,6.9887,-0.5568,
7.505109,-0.6274,0.2135,0.3435,-8.9362,3.3691,-6.4441,-0.5885,-0.0382,0.0958,-9.5063,-35.4750,-13.8750,178.2195,6.9887,-0.5568,
7.550807,-0.6274,0.2135,0.3435,-8.9362,3.3691,-6.4441,-0.5885,-0.0382,0.0958,-10.7438,-38.1938,-11.5125,178.2195,6.9887,-0.5568,
7.557855,-0.9280,0.1680,0.8998,-8.9362,3.3691,-6.4441,-0.5885,-0.0382,0.0958,-10.7438,-38.1938,-11.5125,178.2195,6.9887,-0.5568,
7.560887,0.0740,0.0698,1.8945,-8.9362,3.3691,-6.4441,-0.5885,-0.0382,0.0958,-10.7438,-38.1938,-11.5125,178.2195,6.9887,-0.5568,
7.563133,0.4319,0.0703,1.3524,-8.9362,3.3691,-6.4441,-0.5885,-0.0382,0.0958,-10.7438,-38.1938,-11.5125,178.2195,6.9887,-0.5568,
7.565326,0.0356,0.1126,1.0160,-8.9362,3.3691,-6.4441,-0.5885,-0.0382,0.0958,-10.7438,-38.1938,-11.5125,178.2195,6.9887,-0.5568,
7.567736,0.0960,0.0945,0.7155,-8.9362,3.3691,-6.4441,-0.5885,-0.0382,0.0958,-10.7438,-38.1938,-11.5125,178.2195,6.9887,-0.5568,
7.570279,0.0960,0.0945,0.7155,-8.9362,3.3691,-6.4441,-0.5885,-0.0382,0.0958,-10.7438,-38.1938,-11.5125,177.8463,7.4772,-0.5093,
7.572710,0.0960,0.0945,0.7155,0.8096,2.4226,1.0650,-0.5885,-0.0382,0.0958,-10.7438,-38.1938,-11.5125,177.8463,7.4772,-0.5093,
7.575194,0.0960,0.0945,0.7155,0.8096,2.4226,1.0650,-0.2389,-0.0449,0.1351,-10.7438,-38.1938,-11.5125,177.8463,7.4772,-0.5093,
7.620086,0.0960,0.0945,0.7155,0.8096,2.4226,1.0650,-0.2389,-0.0449,0.1351,-11.9250,-38.8313,-10.3875,177.8463,7.4772,-0.5093,
7.626653,0.0960,0.0945,0.7155,0.8096,2.4226,1.0650,-0.2389,-0.0449,0.1351,-11.9250,-38.8313,-10.3875,177.8463,7.4772,-0.5093,
7.628584,0.0960,0.0945,0.7155,-0.2827,1.5909,4.0283,-0.2389,-0.0449,0.1351,-11.9250,-38.8313,-10.3875,177.8463,7.4772,-0.5093,
7.630341,0.0960,0.0945,0.7155,-0.2827,1.5909,4.0283,0.1110,-0.0705,0.1575,-11.9250,-38.8313,-10.3875,177.8463,7.4772,-0.5093,
7.656001,0.0535,0.0588,0.9334,-0.2827,1.5909,4.0283,0.1110,-0.0705,0.1575,-11.9250,-38.8313,-10.3875,177.8463,7.4772,-0.5093,
7.657549,-0.0831,0.0349,1.2958,-0.2827,1.5909,4.0283,0.1110,-0.0705,0.1575,-11.9250,-38.8313,-10.3875,177.8463,7.4772,-0.5093,
7.659440,0.1030,0.0256,1.2664,-0.2827,1.5909,4.0283,0.1110,-0.0705,0.1575,-11.9250,-38.8313,-10.3875,177.8463,7.4772,-0.5093,
7.661497,0.0371,0.0271,1.2872,-0.2827,1.5909,4.0283,0.1110,-0.0705,0.1575,-11.9250,-38.8313,-10.3875,177.8463,7.4772,-0.5093,
7.663653,0.0078,0.0347,1.0568,-0.2827,1.5909,4.0283,0.1110,-0.0705,0.1575,-11.9250,-38.8313,-10.3875,177.8463,7.4772,-0.5093,
7.690099,0.0078,0.0347,1.0568,-0.2827,1.5909,4.0283,0.1110,-0.0705,0.1575,-12.7688,-38.4000,-10.4625,177.8463,7.4772,-0.5093,
7.695791,0.0078,0.0347,1.0568,0.3961,1.5972,0.4051,0.1110,-0.0705,0.1575,-12.7688,-38.4000,-10.4625,177.8463,7.4772,-0.5093,
7.698733,0.0078,0.0347,1.0568,0.3961,1.5972,0.4051,0.3088,-0.1173,0.1524,-12.7688,-38.4000,-10.4625,177.8463,7.4772,-0.5093,
7.700977,0.0078,0.0347,1.0568,0.3961,1.5972,0.4051,0.3088,-0.1173,0.1524,-12.7688,-38.4000,-10.4625,177.8463,7.4772,-0.5093,
7.754755,0.0309,0.0330,1.0282,0.3961,1.5972,0.4051,0.3088,-0.1173,0.1524,-12.7688,-38.4000,-10.4625,177.8463,7.4772,-0.5093,
7.764989,0.0363,0.0320,1.0238,0.3961,1.5972,0.4051,0.3088,-0.1173,0.1524,-12.7688,-38.4000,-10.4625,177.8463,7.4772,-0.5093,
7.774345,0.0419,0.0322,1.0185,0.3961,1.5972,0.4051,0.3088,-0.1173,0.1524,-12.7688,-38.4000,-10.4625,177.8463,7.4772,-0.5093,
7.780183,0.0446,0.0320,1.0126,0.3961,1.5972,0.4051,0.3088,-0.1173,0.1524,-12.7688,-38.4000,-10.4625,177.8463,7.4772,-0.5093,
7.784269,0.0473,0.0349,1.0075,0.3961,1.5972,0.4051,0.3088,-0.1173,0.1524,-12.7688,-38.4000,-10.4625,177.8463,7.4772,-0.5093,
7.790762,0.0473,0.0349,1.0075,0.3961,1.5972,0.4051,0.3499,-0.1573,0.1430,-12.7688,-38.4000,-10.4625,177.8463,7.4772,-0.5093,
7.797350,0.0473,0.0349,1.0075,0.4827,1.5700,0.1770,0.3499,-0.1573,0.1430,-12.7688,-38.4000,-10.4625,177.8463,7.4772,-0.5093,
7.801370,0.0473,0.0349,1.0075,0.4827,1.5700,0.1770,0.3499,-0.1573,0.1430,-12.7688,-38.4000,-10.4625,177.8463,7.4772,-0.5093,
7.803033,0.0473,0.0349,1.0075,0.4827,1.5700,0.1770,0.3499,-0.1573,0.1430,-13.2188,-37.4813,-11.5688,177.8463,7.4772,-0.5093,
7.829706,0.0473,0.0349,1.0075,0.4827,1.5700,0.1770,0.3208,-0.1681,0.1515,-13.2188,-37.4813,-11.5688,177.8463,7.4772,-0.5093,
7.838912,0.0473,0.0349,1.0075,0.4827,1.5700,0.1770,0.3208,-0.1681,0.1515,-13.7813,-36.4125,-13.2750,177.8463,7.4772,-0.5093,
7.846677,0.0473,0.0349,1.0075,0.4827,1.5700,0.1770,0.3208,-0.1681,0.1515,-13.7813,-36.4125,-13.2750,175.8256,7.3353,-0.2479,
7.852229,0.0473,0.0349,1.0075,0.7116,1.5893,0.1853,0.3208,-0.1681,0.1515,-13.7813,-36.4125,-13.2750,175.8256,7.3353,-0.2479,
7.857000,0.0559,0.0361,1.0041,0.7116,1.5893,0.1853,0.3208,-0.1681,0.1515,-13.7813,-36.4125,-13.2750,175.8256,7.3353,-0.2479,
7.861257,0.0601,0.0356,1.0070,0.7116,1.5893,0.1853,0.3208,-0.1681,0.1515,-13.7813,-36.4125,-13.2750,175.8256,7.3353,-0.2479,
7.862958,0.0679,0.0332,1.0107,0.7116,1.5893,0.1853,0.3208,-0.1681,0.1515,-13.7813,-36.4125,-13.2750,175.8256,7.3353,-0.2479,
7.864663,0.0767,0.0381,1.0072,0.7116,1.5893,0.1853,0.3208,-0.1681,0.1515,-13.7813,-36.4125,-13.2750,175.8256,7.3353,-0.2479,
7.866369,0.0850,0.0381,1.0077,0.7116,1.5893,0.1853,0.3208,-0.1681,0.1515,-13.7813,-36.4125,-13.2750,175.8256,7.3353,-0.2479,
7.893351,0.0850,0.0381,1.0077,0.7116,1.5893,0.1853,0.2813,-0.1563,0.1702,-13.7813,-36.4125,-13.2750,175.8256,7.3353,-0.2479,
7.896118,0.0850,0.0381,1.0077,0.7116,1.5893,0.1853,0.2813,-0.1563,0.1702,-13.7813,-36.4125,-13.2750,175.8256,7.3353,-0.2479,
7.898288,0.0850,0.0381,1.0077,0.9372,1.6524,0.1082,0.2813,-0.1563,0.1702,-13.7813,-36.4125,-13.2750,175.8256,7.3353,-0.2479,
7.900621,0.0850,0.0381,1.0077,0.9372,1.6524,0.1082,0.2813,-0.1563,0.1702,-14.6063,-35.1938,-15.1313,175.8256,7.3353,-0.2479,
7.950793,0.0901,0.0405,1.0038,0.9372,1.6524,0.1082,0.2813,-0.1563,0.1702,-14.6063,-35.1938,-15.1313,175.8256,7.3353,-0.2479,
7.955450,0.0986,0.0410,1.0046,0.9372,1.6524,0.1082,0.2813,-0.1563,0.1702,-14.6063,-35.1938,-15.1313,175.8256,7.3353,-0.2479,
7.964006,0.1011,0.0427,1.0026,0.9372,1.6524,0.1082,0.2813,-0.1563,0.1702,-14.6063,-35.1938,-15.1313,175.8256,7.3353,-0.2479,
7.968744,0.1074,0.0413,1.0063,0.9372,1.6524,0.1082,0.2813,-0.1563,0.1702,-14.6063,-35.1938,-15.1313,175.8256,7.3353,-0.2479,
7.975583,0.1118,0.0437,1.0053,0.9372,1.6524,0.1082,0.2813,-0.1563,0.1702,-14.6063,-35.1938,-15.1313,175.8256,7.3353,-0.2479,
7.982293,0.1118,0.0437,1.0053,0.9372,1.6524,0.1082,0.2813,-0.1563,0.1702,-14.6063,-35.1938,-15.1313,175.8256,7.3353,-0.2479,
7.985810,0.1118,0.0437,1.0053,1.0886,1.6628,0.1459,0.2813,-0.1563,0.1702,-14.6063,-35.1938,-15.1313,175.8256,7.3353,-0.2479,
7.990829,0.1118,0.0437,1.0053,1.0886,1.6628,0.1459,0.2518,-0.1425,0.1802,-14.6063,-35.1938,-15.1313,175.8256,7.3353,-0.2479,
7.996187,0.1118,0.0437,1.0053,1.0886,1.6628,0.1459,0.2518,-0.1425,0.1802,-15.2438,-34.1813,-16.5375,175.8256,7.3353,-0.2479,
8.030524,0.1118,0.0437,1.0053,1.0886,1.6628,0.1459,0.2313,-0.1368,0.1759,-15.2438,-34.1813,-16.5375,175.8256,7.3353,-0.2479,
8.041811,0.1118,0.0437,1.0053,0.8463,1.6302,0.4040,0.2313,-0.1368,0.1759,-15.2438,-34.1813,-16.5375,175.8256,7.3353,-0.2479,
8.050831,0.1118,0.0437,1.0053,0.8463,1.6302,0.4040,0.2313,-0.1368,0.1759,-15.2438,-34.1813,-16.5375,175.8256,7.3353,-0.2479,
8.054677,0.1118,0.0437,1.0053,0.8463,1.6302,0.4040,0.2313,-0.1368,0.1759,-15.6938,-33.6000,-17.1938,175.8256,7.3353,-0.2479,
8.060692,0.1196,0.0400,1.0072,0.8463,1.6302,0.4040,0.2313,-0.1368,0.1759,-15.6938,-33.6000,-17.1938,175.8256,7.3353,-0.2479,
8.066350,0.1255,0.0422,1.0090,0.8463,1.6302,0.4040,0.2313,-0.1368,0.1759,-15.6938,-33.6000,-17.1938,175.8256,7.3353,-0.2479,
8.069901,0.1050,0.0439,1.0231,0.8463,1.6302,0.4040,0.2313,-0.1368,0.1759,-15.6938,-33.6000,-17.1938,175.8256,7.3353,-0.2479,
8.073291,0.1421,0.0652,0.9867,0.8463,1.6302,0.4040,0.2313,-0.1368,0.1759,-15.6938,-33.6000,-17.1938,175.8256,7.3353,-0.2479,
8.076940,0.1260,0.0332,1.0243,0.8463,1.6302,0.4040,0.2313,-0.1368,0.1759,-15.6938,-33.6000,-17.1938,175.8256,7.3353,-0.2479,
8.096015,0.1260,0.0332,1.0243,0.8463,1.6302,0.4040,0.2160,-0.1390,0.1618,-15.6938,-33.6000,-17.1938,175.8256,7.3353,-0.2479,
8.098678,0.1260,0.0332,1.0243,1.1954,1.6053,0.2740,0.2160,-0.1390,0.1618,-15.6938,-33.6000,-17.1938,175.8256,7.3353,-0.2479,
8.100898,0.1260,0.0332,1.0243,1.1954,1.6053,0.2740,0.2160,-0.1390,0.1618,-15.6938,-33.6000,-17.1938,173.2529,7.2325,0.0625,
8.114437,0.1260,0.0332,1.0243,1.1954,1.6053,0.2740,0.2160,-0.1390,0.1618,-16.1250,-33.2250,-17.4750,173.2529,7.2325,0.0625,
8.146614,0.1367,0.0386,1.0094,1.1954,1.6053,0.2740,0.2160,-0.1390,0.1618,-16.1250,-33.2250,-17.4750,173.2529,7.2325,0.0625,
8.148704,0.1160,0.0591,1.0268,1.1954,1.6053,0.2740,0.2160,-0.1390,0.1618,-16.1250,-33.2250,-17.4750,173.2529,7.2325,0.0625,
8.150495,0.0989,0.0994,1.0439,1.1954,1.6053,0.2740,0.2160,-0.1390,0.1618,-16.1250,-33.2250,-17.4750,173.2529,7.2325,0.0625,
8.152188,0.1047,0.0877,1.0395,1.1954,1.6053,0.2740,0.2160,-0.1390,0.1618,-16.1250,-33.2250,-17.4750,173.2529,7.2325,0.0625,
8.153870,0.1514,0.2643,0.8800,1.1954,1.6053,0.2740,0.2160,-0.1390,0.1618,-16.1250,-33.2250,-17.4750,173.2529,7.2325,0.0625,
8.160602,0.1514,0.2643,0.8800,1.1954,1.6053,0.2740,0.2051,-0.1437,0.1436,-16.1250,-33.2250,-17.4750,173.2529,7.2325,0.0625,
8.163077,0.1514,0.2643,0.8800,1.3615,4.4664,-1.0210,0.2051,-0.1437,0.1436,-16.1250,-33.2250,-17.4750,173.2529,7.2325,0.0625,
8.165312,0.1514,0.2643,0.8800,1.3615,4.4664,-1.0210,0.2051,-0.1437,0.1436,-16.1250,-33.2250,-17.4750,173.2529,7.2325,0.0625,
8.180559,0.1514,0.2643,0.8800,1.3615,4.4664,-1.0210,0.2051,-0.1437,0.1436,-16.8188,-32.7000,-17.9062,173.2529,7.2325,0.0625,
8.227310,0.1514,0.2643,0.8800,1.3615,4.4664,-1.0210,0.1997,-0.1466,0.1289,-16.8188,-32.7000,-17.9062,173.2529,7.2325,0.0625,
8.230265,0.1514,0.2643,0.8800,1.3615,4.4664,-1.0210,0.1997,-0.1466,0.1289,-16.8188,-32.7000,-17.9062,173.2529,7.2325,0.0625,
8.232286,0.1514,0.2643,0.8800,3.5115,-8.2265,-1.2240,0.1997,-0.1466,0.1289,-16.8188,-32.7000,-17.9062,173.2529,7.2325,0.0625,
8.246533,0.2479,0.2166,1.1584,3.5115,-8.2265,-1.2240,0.1997,-0.1466,0.1289,-16.8188,-32.7000,-17.9062,173.2529,7.2325,0.0625,
8.251792,0.2807,-0.2959,1.0729,3.5115,-8.2265,-1.2240,0.1997,-0.1466,0.1289,-16.8188,-32.7000,-17.9062,173.2529,7.2325,0.0625,
8.258116,0.3532,-0.5099,1.0553,3.5115,-8.2265,-1.2240,0.1997,-0.1466,0.1289,-16.8188,-32.7000,-17.9062,173.2529,7.2325,0.0625,
8.263734,0.2186,-1.2318,0.6730,3.5115,-8.2265,-1.2240,0.1997,-0.1466,0.1289,-16.8188,-32.7000,-17.9062,173.2529,7.2325,0.0625,
8.271382,-0.1422,-1.9149,1.1536,3.5115,-8.2265,-1.2240,0.1997,-0.1466,0.1289,-16.8188,-32.7000,-17.9062,173.2529,7.2325,0.0625,
8.277510,-0.1422,-1.9149,1.1536,3.5115,-8.2265,-1.2240,0.1997,-0.1466,0.1289,-17.7000,-29.7938,-19.5750,173.2529,7.2325,0.0625,
8.295907,-0.1422,-1.9149,1.1536,3.5115,-8.2265,-1.2240,0.1371,-0.1417,0.1255,-17.7000,-29.7938,-19.5750,173.2529,7.2325,0.0625,
8.298608,-0.1422,-1.9149,1.1536,-2.8515,-9.1718,12.3939,0.1371,-0.1417,0.1255,-17.7000,-29.7938,-19.5750,173.2529,7.2325,0.0625,
8.300790,-0.1422,-1.9149,1.1536,-2.8515,-9.1718,12.3939,0.1371,-0.1417,0.1255,-17.7000,-29.7938,-19.5750,171.0812,8.0883,0.2904,
8.320694,-0.1422,-1.9149,1.1536,-2.8515,-9.1718,12.3939,0.1371,-0.1417,0.1255,-18.7875,-24.0750,-24.3375,171.0812,8.0883,0.2904,
8.346107,-0.4061,-1.3195,2.1169,-2.8515,-9.1718,12.3939,0.1371,-0.1417,0.1255,-18.7875,-24.0750,-24.3375,171.0812,8.0883,0.2904,
8.349020,-0.3766,-1.0691,2.6915,-2.8515,-9.1718,12.3939,0.1371,-0.1417,0.1255,-18.7875,-24.0750,-24.3375,171.0812,8.0883,0.2904,
8.351310,-0.1417,-0.6272,1.4262,-2.8515,-9.1718,12.3939,0.1371,-0.1417,0.1255,-18.7875,-24.0750,-24.3375,171.0812,8.0883,0.2904,
8.353394,-0.1071,-0.2251,2.1064,-2.8515,-9.1718,12.3939,0.1371,-0.1417,0.1255,-18.7875,-24.0750,-24.3375,171.0812,8.0883,0.2904,
8.355676,-0.2918,0.2895,2.6504,-2.8515,-9.1718,12.3939,0.1371,-0.1417,0.1255,-18.7875,-24.0750,-24.3375,171.0812,8.0883,0.2904,
8.361604,-0.2918,0.2895,2.6504,-3.2447,5.1180,13.6885,0.1371,-0.1417,0.1255,-18.7875,-24.0750,-24.3375,171.0812,8.0883,0.2904,
8.364212,-0.2918,0.2895,2.6504,-3.2447,5.1180,13.6885,0.1371,-0.1417,0.1255,-18.7875,-24.0750,-24.3375,170.1251,8.5479,0.1539,
8.366401,-0.2918,0.2895,2.6504,-3.2447,5.1180,13.6885,-0.0669,-0.1060,0.1536,-18.7875,-24.0750,-24.3375,170.1251,8.5479,0.1539,
8.390572,-0.2918,0.2895,2.6504,-3.2447,5.1180,13.6885,-0.0669,-0.1060,0.1536,-18.9188,-15.5625,-27.5250,170.1251,8.5479,0.1539,
8.426827,-0.2918,0.2895,2.6504,-3.2447,5.1180,13.6885,-0.3197,-0.0231,0.2414,-18.9188,-15.5625,-27.5250,170.1251,8.5479,0.1539,
8.429831,-0.2918,0.2895,2.6504,4.4507,-0.5125,1.7836,-0.3197,-0.0231,0.2414,-18.9188,-15.5625,-27.5250,170.1251,8.5479,0.1539,
8.431125,-0.2918,0.2895,2.6504,4.4507,-0.5125,1.7836,-0.3197,-0.0231,0.2414,-18.9188,-15.5625,-27.5250,169.1489,9.0617,0.0950,
8.443969,-0.2976,0.3464,2.2674,4.4507,-0.5125,1.7836,-0.3197,-0.0231,0.2414,-18.9188,-15.5625,-27.5250,169.1489,9.0617,0.0950,
8.446322,-0.0817,0.3156,2.0888,4.4507,-0.5125,1.7836,-0.3197,-0.0231,0.2414,-18.9188,-15.5625,-27.5250,169.1489,9.0617,0.0950,
8.447527,0.2020,0.1319,1.9459,4.4507,-0.5125,1.7836,-0.3197,-0.0231,0.2414,-18.9188,-15.5625,-27.5250,169.1489,9.0617,0.0950,
8.448713,0.4062,-0.1449,1.2999,4.4507,-0.5125,1.7836,-0.3197,-0.0231,0.2414,-18.9188,-15.5625,-27.5250,169.1489,9.0617,0.0950,
8.449903,0.4609,-0.2986,1.0624,4.4507,-0.5125,1.7836,-0.3197,-0.0231,0.2414,-18.9188,-15.5625,-27.5250,169.1489,9.0617,0.0950,
8.460765,0.4609,-0.2986,1.0624,4.4507,-0.5125,1.7836,-0.3197,-0.0231,0.2414,-18.6000,-9.1875,-29.7750,169.1489,9.0617,0.0950,
8.492331,0.4609,-0.2986,1.0624,4.4507,-0.5125,1.7836,-0.4196,0.0630,0.3798,-18.6000,-9.1875,-29.7750,169.1489,9.0617,0.0950,
8.494800,0.4609,-0.2986,1.0624,-0.8256,-3.3492,-5.8687,-0.4196,0.0630,0.3798,-18.6000,-9.1875,-29.7750,169.1489,9.0617,0.0950,
8.496231,0.4609,-0.2986,1.0624,-0.8256,-3.3492,-5.8687,-0.4196,0.0630,0.3798,-18.6000,-9.1875,-29.7750,168.0644,9.7304,-0.0202,
8.530747,0.4609,-0.2986,1.0624,-0.8256,-3.3492,-5.8687,-0.4196,0.0630,0.3798,-18.5250,-5.2313,-32.1938,168.0644,9.7304,-0.0202,
8.540009,0.3393,-0.4757,0.8494,-0.8256,-3.3492,-5.8687,-0.4196,0.0630,0.3798,-18.5250,-5.2313,-32.1938,168.0644,9.7304,-0.0202,
8.542327,-0.0215,-0.5324,0.5485,-0.8256,-3.3492,-5.8687,-0.4196,0.0630,0.3798,-18.5250,-5.2313,-32.1938,168.0644,9.7304,-0.0202,
8.544031,-0.0805,-0.5329,0.3718,-0.8256,-3.3492,-5.8687,-0.4196,0.0630,0.3798,-18.5250,-5.2313,-32.1938,168.0644,9.7304,-0.0202,
8.545865,0.0588,-0.5351,0.5856,-0.8256,-3.3492,-5.8687,-0.4196,0.0630,0.3798,-18.5250,-5.2313,-32.1938,168.0644,9.7304,-0.0202,
8.547624,0.1504,-0.4940,1.1497,-0.8256,-3.3492,-5.8687,-0.4196,0.0630,0.3798,-18.5250,-5.2313,-32.1938,168.0644,9.7304,-0.0202,
8.560177,0.1504,-0.4940,1.1497,-0.8256,-3.3492,-5.8687,-0.3336,0.0801,0.5091,-18.5250,-5.2313,-32.1938,168.0644,9.7304,-0.0202,
8.561758,0.1504,-0.4940,1.1497,-0.8074,-3.2000,-5.8419,-0.3336,0.0801,0.5091,-18.5250,-5.2313,-32.1938,168.0644,9.7304,-0.0202,
8.562928,0.1504,-0.4940,1.1497,-0.8074,-3.2000,-5.8419,-0.3336,0.0801,0.5091,-18.5250,-5.2313,-32.1938,166.9820,10.6159,-0.1258,
8.600048,0.1504,-0.4940,1.1497,-0.8074,-3.2000,-5.8419,-0.3336,0.0801,0.5091,-17.7000,-3.5625,-35.0625,166.9820,10.6159,-0.1258,
8.626709,0.1504,-0.4940,1.1497,-0.8074,-3.2000,-5.8419,-0.2267,0.0133,0.5298,-17.7000,-3.5625,-35.0625,166.9820,10.6159,-0.1258,
8.629600,0.1504,-0.4940,1.1497,-0.8074,-3.2000,-5.8419,-0.2267,0.0133,0.5298,-17.7000,-3.5625,-35.0625,166.0344,11.3135,-0.1912,
8.631324,0.1504,-0.4940,1.1497,6.3193,-5.2184,2.0098,-0.2267,0.0133,0.5298,-17.7000,-3.5625,-35.0625,166.0344,11.3135,-0.1912,
8.638730,0.4385,-0.6690,1.1983,6.3193,-5.2184,2.0098,-0.2267,0.0133,0.5298,-17.7000,-3.5625,-35.0625,166.0344,11.3135,-0.1912,
8.640939,1.3062,-0.8341,1.2965,6.3193,-5.2184,2.0098,-0.2267,0.0133,0.5298,-17.7000,-3.5625,-35.0625,166.0344,11.3135,-0.1912,
8.642818,1.7729,-1.0159,1.4924,6.3193,-5.2184,2.0098,-0.2267,0.0133,0.5298,-17.7000,-3.5625,-35.0625,166.0344,11.3135,-0.1912,
8.643912,0.7429,-1.1470,1.4506,6.3193,-5.2184,2.0098,-0.2267,0.0133,0.5298,-17.7000,-3.5625,-35.0625,166.0344,11.3135,-0.1912,
8.644971,-0.3790,-0.9599,1.3056,6.3193,-5.2184,2.0098,-0.2267,0.0133,0.5298,-17.7000,-3.5625,-35.0625,166.0344,11.3135,-0.1912,
8.670326,-0.3790,-0.9599,1.3056,6.3193,-5.2184,2.0098,-0.2267,0.0133,0.5298,-15.1875,-3.6000,-36.0563,166.0344,11.3135,-0.1912,
