
time,gFx,gFy,gFz,ax,ay,az,wx,wy,wz,Bx,By,Bz,Azimuth,Pitch,Roll,
0.089159,-0.1080,0.1512,1.0070,0.0000,0.0000,0.0000,0.0000,0.0000,0.0000,0.0000,0.0000,0.0000,0.0000,0.0000,0.0000,
0.131327,-0.1171,0.1424,0.9657,0.0000,0.0000,0.0000,0.0000,0.0000,0.0000,0.0000,0.0000,0.0000,0.0000,0.0000,0.0000,
0.133485,-0.0663,0.1702,1.0534,0.0000,0.0000,0.0000,0.0000,0.0000,0.0000,0.0000,0.0000,0.0000,0.0000,0.0000,0.0000,
0.134888,-0.1083,0.1859,0.9159,0.0000,0.0000,0.0000,0.0000,0.0000,0.0000,0.0000,0.0000,0.0000,0.0000,0.0000,0.0000,
0.135935,-0.1083,0.1859,0.9159,0.0000,0.0000,0.0000,0.0000,0.0000,0.0000,30.0188,-28.4250,-18.2250,0.0000,0.0000,0.0000,
0.157911,-0.1083,0.1859,0.9159,0.0000,0.0000,0.0000,0.0000,0.0000,0.0000,30.0188,-28.4250,-18.2250,221.8867,-20.9778,-8.8271,
0.159833,-0.1083,0.1859,0.9159,0.0000,0.0000,0.0000,0.0010,0.0031,0.0038,30.0188,-28.4250,-18.2250,221.8867,-20.9778,-8.8271,
0.160986,-0.1083,0.1859,0.9159,-0.9789,-1.2829,-1.0200,0.0010,0.0031,0.0038,30.0188,-28.4250,-18.2250,221.8867,-20.9778,-8.8271,
0.204670,-0.1083,0.1859,0.9159,-0.9789,-1.2829,-1.0200,0.0010,0.0031,0.0038,30.2063,-28.4063,-18.0750,221.8867,-20.9778,-8.8271,
0.226867,-0.1083,0.1859,0.9159,-0.9789,-1.2829,-1.0200,-0.0016,-0.0028,-0.0015,30.2063,-28.4063,-18.0750,221.8867,-20.9778,-8.8271,
0.229878,-0.1083,0.1859,0.9159,-0.5978,-1.8469,0.5543,-0.0016,-0.0028,-0.0015,30.2063,-28.4063,-18.0750,221.8867,-20.9778,-8.8271,
0.231705,-0.1083,0.1859,0.9159,-0.5978,-1.8469,0.5543,-0.0016,-0.0028,-0.0015,30.2063,-28.4063,-18.0750,220.8029,-21.0190,-9.1956,
0.232953,-0.2351,0.2096,0.8084,-0.5978,-1.8469,0.5543,-0.0016,-0.0028,-0.0015,30.2063,-28.4063,-18.0750,220.8029,-21.0190,-9.1956,
0.234038,-0.2762,0.2416,0.9608,-0.5978,-1.8469,0.5543,-0.0016,-0.0028,-0.0015,30.2063,-28.4063,-18.0750,220.8029,-21.0190,-9.1956,
0.235135,-0.2080,0.1788,1.0129,-0.5978,-1.8469,0.5543,-0.0016,-0.0028,-0.0015,30.2063,-28.4063,-18.0750,220.8029,-21.0190,-9.1956,
0.236099,-0.1821,0.1561,1.0329,-0.5978,-1.8469,0.5543,-0.0016,-0.0028,-0.0015,30.2063,-28.4063,-18.0750,220.8029,-21.0190,-9.1956,
0.237049,-0.2104,0.1661,0.9581,-0.5978,-1.8469,0.5543,-0.0016,-0.0028,-0.0015,30.2063,-28.4063,-18.0750,220.8029,-21.0190,-9.1956,
0.275465,-0.2104,0.1661,0.9581,-0.5978,-1.8469,0.5543,-0.0016,-0.0028,-0.0015,30.3000,-28.2563,-17.8875,220.8029,-21.0190,-9.1956,
0.292004,-0.2104,0.1661,0.9581,-0.5978,-1.8469,0.5543,0.0047,0.0038,-0.0015,30.3000,-28.2563,-17.8875,220.8029,-21.0190,-9.1956,
0.294717,-0.2104,0.1661,0.9581,-0.4761,-2.0684,0.9421,0.0047,0.0038,-0.0015,30.3000,-28.2563,-17.8875,220.8029,-21.0190,-9.1956,
0.295951,-0.2104,0.1661,0.9581,-0.4761,-2.0684,0.9421,0.0047,0.0038,-0.0015,30.3000,-28.2563,-17.8875,220.8029,-21.0190,-9.1956,
0.327695,-0.2150,0.1644,0.9415,-0.4761,-2.0684,0.9421,0.0047,0.0038,-0.0015,30.3000,-28.2563,-17.8875,220.8029,-21.0190,-9.1956,
0.330122,-0.2553,0.1378,0.9875,-0.4761,-2.0684,0.9421,0.0047,0.0038,-0.0015,30.3000,-28.2563,-17.8875,220.8029,-21.0190,-9.1956,
0.331731,-0.2270,0.1375,1.0256,-0.4761,-2.0684,0.9421,0.0047,0.0038,-0.0015,30.3000,-28.2563,-17.8875,220.8029,-21.0190,-9.1956,
0.333202,-0.1356,0.1358,0.9953,-0.4761,-2.0684,0.9421,0.0047,0.0038,-0.0015,30.3000,-28.2563,-17.8875,220.8029,-21.0190,-9.1956,
0.334818,-0.1168,0.1597,1.0348,-0.4761,-2.0684,0.9421,0.0047,0.0038,-0.0015,30.3000,-28.2563,-17.8875,220.8029,-21.0190,-9.1956,
0.345180,-0.1168,0.1597,1.0348,-0.4761,-2.0684,0.9421,0.0047,0.0038,-0.0015,30.4313,-28.2188,-17.7938,220.8029,-21.0190,-9.1956,
0.357545,-0.1168,0.1597,1.0348,-0.4761,-2.0684,0.9421,0.0047,0.0038,-0.0015,30.4313,-28.2188,-17.7938,220.6813,-20.4893,-9.4910,
0.358959,-0.1168,0.1597,1.0348,0.2518,-1.9519,0.5303,0.0047,0.0038,-0.0015,30.4313,-28.2188,-17.7938,220.6813,-20.4893,-9.4910,
0.360011,-0.1168,0.1597,1.0348,0.2518,-1.9519,0.5303,0.0042,-0.0017,0.0022,30.4313,-28.2188,-17.7938,220.6813,-20.4893,-9.4910,
0.415360,-0.1168,0.1597,1.0348,0.2518,-1.9519,0.5303,0.0042,-0.0017,0.0022,30.6188,-28.1625,-17.6813,220.6813,-20.4893,-9.4910,
0.424327,-0.1168,0.1597,1.0348,0.2800,-1.8911,0.5129,0.0042,-0.0017,0.0022,30.6188,-28.1625,-17.6813,220.6813,-20.4893,-9.4910,
0.425717,-0.1168,0.1597,1.0348,0.2800,-1.8911,0.5129,0.0024,-0.0047,0.0025,30.6188,-28.1625,-17.6813,220.6813,-20.4893,-9.4910,
0.427037,-0.1168,0.1597,1.0348,0.2800,-1.8911,0.5129,0.0024,-0.0047,0.0025,30.6188,-28.1625,-17.6813,220.6813,-20.4893,-9.4910,
0.428292,-0.1432,0.1439,0.9963,0.2800,-1.8911,0.5129,0.0024,-0.0047,0.0025,30.6188,-28.1625,-17.6813,220.6813,-20.4893,-9.4910,
0.429938,-0.1444,0.1529,0.9779,0.2800,-1.8911,0.5129,0.0024,-0.0047,0.0025,30.6188,-28.1625,-17.6813,220.6813,-20.4893,-9.4910,
0.431338,-0.1762,0.1749,1.0004,0.2800,-1.8911,0.5129,0.0024,-0.0047,0.0025,30.6188,-28.1625,-17.6813,220.6813,-20.4893,-9.4910,
0.432289,-0.2243,0.1700,0.9823,0.2800,-1.8911,0.5129,0.0024,-0.0047,0.0025,30.6188,-28.1625,-17.6813,220.6813,-20.4893,-9.4910,
0.433247,-0.2194,0.1742,0.9630,0.2800,-1.8911,0.5129,0.0024,-0.0047,0.0025,30.6188,-28.1625,-17.6813,220.6813,-20.4893,-9.4910,
0.486149,-0.2194,0.1742,0.9630,0.2800,-1.8911,0.5129,0.0024,-0.0047,0.0025,30.7688,-28.2750,-17.5875,220.6813,-20.4893,-9.4910,
0.491962,-0.2194,0.1742,0.9630,-0.4453,-1.6109,0.3219,0.0024,-0.0047,0.0025,30.7688,-28.2750,-17.5875,220.6813,-20.4893,-9.4910,
0.493974,-0.2194,0.1742,0.9630,-0.4453,-1.6109,0.3219,0.0024,-0.0047,0.0025,30.7688,-28.2750,-17.5875,220.7149,-19.7170,-9.8152,
0.495304,-0.2194,0.1742,0.9630,-0.4453,-1.6109,0.3219,-0.0014,-0.0033,-0.0017,30.7688,-28.2750,-17.5875,220.7149,-19.7170,-9.8152,
0.525646,-0.2270,0.1236,0.9449,-0.4453,-1.6109,0.3219,-0.0014,-0.0033,-0.0017,30.7688,-28.2750,-17.5875,220.7149,-19.7170,-9.8152,
0.527967,-0.1887,0.1363,0.9193,-0.4453,-1.6109,0.3219,-0.0014,-0.0033,-0.0017,30.7688,-28.2750,-17.5875,220.7149,-19.7170,-9.8152,
0.529234,-0.2094,0.2010,0.9242,-0.4453,-1.6109,0.3219,-0.0014,-0.0033,-0.0017,30.7688,-28.2750,-17.5875,220.7149,-19.7170,-9.8152,
0.530467,-0.2336,0.2022,0.9738,-0.4453,-1.6109,0.3219,-0.0014,-0.0033,-0.0017,30.7688,-28.2750,-17.5875,220.7149,-19.7170,-9.8152,
0.531562,-0.2456,0.1942,0.9938,-0.4453,-1.6109,0.3219,-0.0014,-0.0033,-0.0017,30.7688,-28.2750,-17.5875,220.7149,-19.7170,-9.8152,
0.554658,-0.2456,0.1942,0.9938,-0.4453,-1.6109,0.3219,-0.0014,-0.0033,-0.0017,30.8813,-28.2563,-17.5875,220.7149,-19.7170,-9.8152,
0.556751,-0.2456,0.1942,0.9938,-0.4453,-1.6109,0.3219,-0.0908,-0.1145,-0.0889,30.8813,-28.2563,-17.5875,220.7149,-19.7170,-9.8152,
0.558410,-0.2456,0.1942,0.9938,-0.5404,-1.2055,0.3350,-0.0908,-0.1145,-0.0889,30.8813,-28.2563,-17.5875,220.7149,-19.7170,-9.8152,
0.560298,-0.2456,0.1942,0.9938,-0.5404,-1.2055,0.3350,-0.0908,-0.1145,-0.0889,30.8813,-28.2563,-17.5875,220.7149,-19.7170,-9.8152,
0.622104,-0.2302,0.1742,1.0214,-0.5404,-1.2055,0.3350,-0.0908,-0.1145,-0.0889,30.8813,-28.2563,-17.5875,220.7149,-19.7170,-9.8152,
0.624657,-0.1943,0.1429,1.0463,-0.5404,-1.2055,0.3350,-0.0908,-0.1145,-0.0889,30.8813,-28.2563,-17.5875,220.7149,-19.7170,-9.8152,
0.626559,-0.1836,0.1502,1.0321,-0.5404,-1.2055,0.3350,-0.0908,-0.1145,-0.0889,30.8813,-28.2563,-17.5875,220.7149,-19.7170,-9.8152,
0.627632,-0.1794,0.1851,0.9950,-0.5404,-1.2055,0.3350,-0.0908,-0.1145,-0.0889,30.8813,-28.2563,-17.5875,220.7149,-19.7170,-9.8152,
0.628633,-0.1757,0.1829,0.9831,-0.5404,-1.2055,0.3350,-0.0908,-0.1145,-0.0889,30.8813,-28.2563,-17.5875,220.7149,-19.7170,-9.8152,
0.629650,-0.1757,0.1829,0.9831,-0.5404,-1.2055,0.3350,-0.0774,-0.1133,-0.0966,30.8813,-28.2563,-17.5875,220.7149,-19.7170,-9.8152,
0.630762,-0.1757,0.1829,0.9831,-0.0944,-1.7661,1.1582,-0.0774,-0.1133,-0.0966,30.8813,-28.2563,-17.5875,220.7149,-19.7170,-9.8152,
0.631770,-0.1757,0.1829,0.9831,-0.0944,-1.7661,1.1582,-0.0774,-0.1133,-0.0966,30.8813,-28.2563,-17.5875,220.9695,-18.9264,-9.9656,
0.632756,-0.1757,0.1829,0.9831,-0.0944,-1.7661,1.1582,-0.0774,-0.1133,-0.0966,30.9000,-28.2750,-17.5688,220.9695,-18.9264,-9.9656,
0.692045,-0.1757,0.1829,0.9831,-0.0944,-1.7661,1.1582,-0.0774,-0.1133,-0.0966,30.9000,-28.2750,-17.5688,220.9695,-18.9264,-9.9656,
0.695031,-0.1757,0.1829,0.9831,0.0579,-1.3451,0.3072,-0.0774,-0.1133,-0.0966,30.9000,-28.2750,-17.5688,220.9695,-18.9264,-9.9656,
0.696585,-0.1757,0.1829,0.9831,0.0579,-1.3451,0.3072,-0.0620,-0.1095,-0.0955,30.9000,-28.2750,-17.5688,220.9695,-18.9264,-9.9656,
0.697938,-0.1757,0.1829,0.9831,0.0579,-1.3451,0.3072,-0.0620,-0.1095,-0.0955,31.0500,-28.2750,-17.3625,220.9695,-18.9264,-9.9656,
0.721142,-0.1657,0.1773,0.9632,0.0579,-1.3451,0.3072,-0.0620,-0.1095,-0.0955,31.0500,-28.2750,-17.3625,220.9695,-18.9264,-9.9656,
0.723429,-0.1643,0.1688,0.9642,0.0579,-1.3451,0.3072,-0.0620,-0.1095,-0.0955,31.0500,-28.2750,-17.3625,220.9695,-18.9264,-9.9656,
0.724486,-0.1731,0.1597,0.9848,0.0579,-1.3451,0.3072,-0.0620,-0.1095,-0.0955,31.0500,-28.2750,-17.3625,220.9695,-18.9264,-9.9656,
0.725469,-0.1899,0.1676,1.0026,0.0579,-1.3451,0.3072,-0.0620,-0.1095,-0.0955,31.0500,-28.2750,-17.3625,220.9695,-18.9264,-9.9656,
0.726608,-0.1884,0.1641,0.9867,0.0579,-1.3451,0.3072,-0.0620,-0.1095,-0.0955,31.0500,-28.2750,-17.3625,220.9695,-18.9264,-9.9656,
0.758128,-0.1884,0.1641,0.9867,0.0579,-1.3451,0.3072,-0.0527,-0.1103,-0.0891,31.0500,-28.2750,-17.3625,220.9695,-18.9264,-9.9656,
0.761167,-0.1884,0.1641,0.9867,-0.1695,-1.3936,0.6648,-0.0527,-0.1103,-0.0891,31.0500,-28.2750,-17.3625,220.9695,-18.9264,-9.9656,
0.763097,-0.1884,0.1641,0.9867,-0.1695,-1.3936,0.6648,-0.0527,-0.1103,-0.0891,31.0500,-28.2750,-17.3625,221.2543,-18.2489,-10.0597,
0.766120,-0.1884,0.1641,0.9867,-0.1695,-1.3936,0.6648,-0.0527,-0.1103,-0.0891,31.1250,-28.2938,-17.1938,221.2543,-18.2489,-10.0597,
0.819751,-0.1635,0.2027,0.9677,-0.1695,-1.3936,0.6648,-0.0527,-0.1103,-0.0891,31.1250,-28.2938,-17.1938,221.2543,-18.2489,-10.0597,
0.822748,-0.1503,0.2235,0.9476,-0.1695,-1.3936,0.6648,-0.0527,-0.1103,-0.0891,31.1250,-28.2938,-17.1938,221.2543,-18.2489,-10.0597,
0.823819,-0.1806,0.2110,0.9706,-0.1695,-1.3936,0.6648,-0.0527,-0.1103,-0.0891,31.1250,-28.2938,-17.1938,221.2543,-18.2489,-10.0597,
0.824868,-0.1987,0.1888,1.0021,-0.1695,-1.3936,0.6648,-0.0527,-0.1103,-0.0891,31.1250,-28.2938,-17.1938,221.2543,-18.2489,-10.0597,
0.825939,-0.1826,0.1759,0.9794,-0.1695,-1.3936,0.6648,-0.0527,-0.1103,-0.0891,31.1250,-28.2938,-17.1938,221.2543,-18.2489,-10.0597,
0.827056,-0.1826,0.1759,0.9794,-0.1695,-1.3936,0.6648,-0.0470,-0.1149,-0.0818,31.1250,-28.2938,-17.1938,221.2543,-18.2489,-10.0597,
0.828021,-0.1826,0.1759,0.9794,-0.1695,-1.3936,0.6648,-0.0470,-0.1149,-0.0818,31.1250,-28.2938,-17.1938,221.2543,-18.2489,-10.0597,
0.828934,-0.1826,0.1759,0.9794,0.0441,-0.8641,0.2082,-0.0470,-0.1149,-0.0818,31.1250,-28.2938,-17.1938,221.2543,-18.2489,-10.0597,
0.836919,-0.1826,0.1759,0.9794,0.0441,-0.8641,0.2082,-0.0470,-0.1149,-0.0818,31.1813,-28.3875,-17.1938,221.2543,-18.2489,-10.0597,
0.891868,-0.1826,0.1759,0.9794,0.2781,-1.0470,0.0376,-0.0470,-0.1149,-0.0818,31.1813,-28.3875,-17.1938,221.2543,-18.2489,-10.0597,
0.894806,-0.1826,0.1759,0.9794,0.2781,-1.0470,0.0376,-0.0404,-0.1170,-0.0741,31.1813,-28.3875,-17.1938,221.2543,-18.2489,-10.0597,
0.895964,-0.1826,0.1759,0.9794,0.2781,-1.0470,0.0376,-0.0404,-0.1170,-0.0741,31.1813,-28.3875,-17.1938,221.5398,-17.5824,-10.1015,
0.906042,-0.1826,0.1759,0.9794,0.2781,-1.0470,0.0376,-0.0404,-0.1170,-0.0741,31.1625,-28.4438,-17.1000,221.5398,-17.5824,-10.1015,
0.917097,-0.1579,0.1922,0.9544,0.2781,-1.0470,0.0376,-0.0404,-0.1170,-0.0741,31.1625,-28.4438,-17.1000,221.5398,-17.5824,-10.1015,
0.919088,-0.1755,0.2078,0.9479,0.2781,-1.0470,0.0376,-0.0404,-0.1170,-0.0741,31.1625,-28.4438,-17.1000,221.5398,-17.5824,-10.1015,
0.920390,-0.1850,0.1781,0.9664,0.2781,-1.0470,0.0376,-0.0404,-0.1170,-0.0741,31.1625,-28.4438,-17.1000,221.5398,-17.5824,-10.1015,
0.921705,-0.1884,0.1832,0.9657,0.2781,-1.0470,0.0376,-0.0404,-0.1170,-0.0741,31.1625,-28.4438,-17.1000,221.5398,-17.5824,-10.1015,
0.923040,-0.1784,0.1873,0.9605,0.2781,-1.0470,0.0376,-0.0404,-0.1170,-0.0741,31.1625,-28.4438,-17.1000,221.5398,-17.5824,-10.1015,
0.957773,-0.1784,0.1873,0.9605,0.2781,-1.0470,0.0376,-0.0331,-0.1120,-0.0641,31.1625,-28.4438,-17.1000,221.5398,-17.5824,-10.1015,
0.960743,-0.1784,0.1873,0.9605,-0.0741,-1.0359,0.1593,-0.0331,-0.1120,-0.0641,31.1625,-28.4438,-17.1000,221.5398,-17.5824,-10.1015,
0.963016,-0.1784,0.1873,0.9605,-0.0741,-1.0359,0.1593,-0.0331,-0.1120,-0.0641,31.1625,-28.4438,-17.1000,221.5398,-17.5824,-10.1015,
0.975304,-0.1784,0.1873,0.9605,-0.0741,-1.0359,0.1593,-0.0331,-0.1120,-0.0641,31.0125,-28.5188,-17.0813,221.5398,-17.5824,-10.1015,
1.015948,-0.1733,0.1927,0.9906,-0.0741,-1.0359,0.1593,-0.0331,-0.1120,-0.0641,31.0125,-28.5188,-17.0813,221.5398,-17.5824,-10.1015,
1.028118,-0.1904,0.1781,1.0090,-0.0741,-1.0359,0.1593,-0.0331,-0.1120,-0.0641,31.0125,-28.5188,-17.0813,221.5398,-17.5824,-10.1015,
1.033973,-0.2036,0.1707,1.0158,-0.0741,-1.0359,0.1593,-0.0331,-0.1120,-0.0641,31.0125,-28.5188,-17.0813,221.5398,-17.5824,-10.1015,
1.038087,-0.1926,0.1698,1.0121,-0.0741,-1.0359,0.1593,-0.0331,-0.1120,-0.0641,31.0125,-28.5188,-17.0813,221.5398,-17.5824,-10.1015,
1.044996,-0.1818,0.1646,1.0094,-0.0741,-1.0359,0.1593,-0.0331,-0.1120,-0.0641,31.0125,-28.5188,-17.0813,221.5398,-17.5824,-10.1015,
1.051523,-0.1818,0.1646,1.0094,-0.0741,-1.0359,0.1593,-0.0331,-0.1120,-0.0641,31.0125,-28.5188,-17.0813,221.7688,-16.8370,-10.1895,
1.054019,-0.1818,0.1646,1.0094,-0.0741,-1.0359,0.1593,-0.0287,-0.1010,-0.0521,31.0125,-28.5188,-17.0813,221.7688,-16.8370,-10.1895,
1.055848,-0.1818,0.1646,1.0094,-0.2386,-1.1273,0.7309,-0.0287,-0.1010,-0.0521,31.0125,-28.5188,-17.0813,221.7688,-16.8370,-10.1895,
1.057634,-0.1818,0.1646,1.0094,-0.2386,-1.1273,0.7309,-0.0287,-0.1010,-0.0521,30.8250,-28.4250,-17.1562,221.7688,-16.8370,-10.1895,
1.090836,-0.1818,0.1646,1.0094,-0.2386,-1.1273,0.7309,-0.0288,-0.0891,-0.0404,30.8250,-28.4250,-17.1562,221.7688,-16.8370,-10.1895,
1.098087,-0.1818,0.1646,1.0094,0.1527,-1.0728,0.3158,-0.0288,-0.0891,-0.0404,30.8250,-28.4250,-17.1562,221.7688,-16.8370,-10.1895,
1.103017,-0.1818,0.1646,1.0094,0.1527,-1.0728,0.3158,-0.0288,-0.0891,-0.0404,30.8250,-28.4250,-17.1562,221.7688,-16.8370,-10.1895,
1.119401,-0.1648,0.1685,0.9833,0.1527,-1.0728,0.3158,-0.0288,-0.0891,-0.0404,30.8250,-28.4250,-17.1562,221.7688,-16.8370,-10.1895,
1.128617,-0.1626,0.1668,0.9784,0.1527,-1.0728,0.3158,-0.0288,-0.0891,-0.0404,30.8250,-28.4250,-17.1562,221.7688,-16.8370,-10.1895,
1.136534,-0.1621,0.1649,0.9865,0.1527,-1.0728,0.3158,-0.0288,-0.0891,-0.0404,30.8250,-28.4250,-17.1562,221.7688,-16.8370,-10.1895,
1.142876,-0.1574,0.1724,0.9779,0.1527,-1.0728,0.3158,-0.0288,-0.0891,-0.0404,30.8250,-28.4250,-17.1562,221.7688,-16.8370,-10.1895,
1.150092,-0.1530,0.1720,0.9806,0.1527,-1.0728,0.3158,-0.0288,-0.0891,-0.0404,30.8250,-28.4250,-17.1562,221.7688,-16.8370,-10.1895,
1.153246,-0.1530,0.1720,0.9806,0.1527,-1.0728,0.3158,-0.0288,-0.0891,-0.0404,30.7313,-28.4063,-17.2125,221.7688,-16.8370,-10.1895,
1.157941,-0.1530,0.1720,0.9806,0.1527,-1.0728,0.3158,-0.0315,-0.0812,-0.0321,30.7313,-28.4063,-17.2125,221.7688,-16.8370,-10.1895,
1.159957,-0.1530,0.1720,0.9806,0.1527,-1.0728,0.3158,-0.0315,-0.0812,-0.0321,30.7313,-28.4063,-17.2125,222.0003,-16.0115,-10.2943,
1.161317,-0.1530,0.1720,0.9806,0.2914,-0.9930,0.3403,-0.0315,-0.0812,-0.0321,30.7313,-28.4063,-17.2125,222.0003,-16.0115,-10.2943,
1.185844,-0.1530,0.1720,0.9806,0.2914,-0.9930,0.3403,-0.0315,-0.0812,-0.0321,30.6188,-28.4063,-17.2875,222.0003,-16.0115,-10.2943,
1.211561,-0.1488,0.1720,1.0024,0.2914,-0.9930,0.3403,-0.0315,-0.0812,-0.0321,30.6188,-28.4063,-17.2875,222.0003,-16.0115,-10.2943,
1.214444,-0.1547,0.1688,1.0041,0.2914,-0.9930,0.3403,-0.0315,-0.0812,-0.0321,30.6188,-28.4063,-17.2875,222.0003,-16.0115,-10.2943,
1.216779,-0.1549,0.1817,0.9906,0.2914,-0.9930,0.3403,-0.0315,-0.0812,-0.0321,30.6188,-28.4063,-17.2875,222.0003,-16.0115,-10.2943,
1.219232,-0.1559,0.1910,0.9845,0.2914,-0.9930,0.3403,-0.0315,-0.0812,-0.0321,30.6188,-28.4063,-17.2875,222.0003,-16.0115,-10.2943,
1.221454,-0.1611,0.1898,0.9840,0.2914,-0.9930,0.3403,-0.0315,-0.0812,-0.0321,30.6188,-28.4063,-17.2875,222.0003,-16.0115,-10.2943,
1.224588,-0.1611,0.1898,0.9840,0.2914,-0.9930,0.3403,-0.0333,-0.0795,-0.0283,30.6188,-28.4063,-17.2875,222.0003,-16.0115,-10.2943,
1.226872,-0.1611,0.1898,0.9840,0.2914,-0.9930,0.3403,-0.0333,-0.0795,-0.0283,30.6188,-28.4063,-17.2875,222.1275,-15.5750,-10.3504,
1.229058,-0.1611,0.1898,0.9840,0.2290,-0.7255,0.3459,-0.0333,-0.0795,-0.0283,30.6188,-28.4063,-17.2875,222.1275,-15.5750,-10.3504,
1.255391,-0.1611,0.1898,0.9840,0.2290,-0.7255,0.3459,-0.0333,-0.0795,-0.0283,30.5063,-28.3500,-17.4938,222.1275,-15.5750,-10.3504,
1.291940,-0.1611,0.1898,0.9840,0.2290,-0.7255,0.3459,-0.0313,-0.0814,-0.0271,30.5063,-28.3500,-17.4938,222.1275,-15.5750,-10.3504,
1.301761,-0.1611,0.1898,0.9840,0.4320,-0.7474,0.6968,-0.0313,-0.0814,-0.0271,30.5063,-28.3500,-17.4938,222.1275,-15.5750,-10.3504,
1.310163,-0.1611,0.1898,0.9840,0.4320,-0.7474,0.6968,-0.0313,-0.0814,-0.0271,30.5063,-28.3500,-17.4938,222.2701,-15.1514,-10.3897,
1.317890,-0.1530,0.1844,0.9899,0.4320,-0.7474,0.6968,-0.0313,-0.0814,-0.0271,30.5063,-28.3500,-17.4938,222.2701,-15.1514,-10.3897,
1.322488,-0.1376,0.1798,1.0155,0.4320,-0.7474,0.6968,-0.0313,-0.0814,-0.0271,30.5063,-28.3500,-17.4938,222.2701,-15.1514,-10.3897,
1.327901,-0.1356,0.1910,0.9950,0.4320,-0.7474,0.6968,-0.0313,-0.0814,-0.0271,30.5063,-28.3500,-17.4938,222.2701,-15.1514,-10.3897,
1.332796,-0.1420,0.1983,0.9566,0.4320,-0.7474,0.6968,-0.0313,-0.0814,-0.0271,30.5063,-28.3500,-17.4938,222.2701,-15.1514,-10.3897,
1.334725,-0.1601,0.1864,0.9637,0.4320,-0.7474,0.6968,-0.0313,-0.0814,-0.0271,30.5063,-28.3500,-17.4938,222.2701,-15.1514,-10.3897,
1.336420,-0.1601,0.1864,0.9637,0.4320,-0.7474,0.6968,-0.0313,-0.0814,-0.0271,30.3938,-28.3500,-17.6813,222.2701,-15.1514,-10.3897,
1.358387,-0.1601,0.1864,0.9637,0.4320,-0.7474,0.6968,-0.0313,-0.0814,-0.0271,30.3938,-28.3500,-17.6813,222.4388,-14.7443,-10.4218,
1.364887,-0.1601,0.1864,0.9637,0.2123,-0.7240,0.2683,-0.0313,-0.0814,-0.0271,30.3938,-28.3500,-17.6813,222.4388,-14.7443,-10.4218,
1.370162,-0.1601,0.1864,0.9637,0.2123,-0.7240,0.2683,-0.0250,-0.0825,-0.0265,30.3938,-28.3500,-17.6813,222.4388,-14.7443,-10.4218,
1.396046,-0.1601,0.1864,0.9637,0.2123,-0.7240,0.2683,-0.0250,-0.0825,-0.0265,30.3000,-28.2188,-17.7000,222.4388,-14.7443,-10.4218,
1.409258,-0.1588,0.1763,0.9828,0.2123,-0.7240,0.2683,-0.0250,-0.0825,-0.0265,30.3000,-28.2188,-17.7000,222.4388,-14.7443,-10.4218,
1.418414,-0.1542,0.1766,0.9931,0.2123,-0.7240,0.2683,-0.0250,-0.0825,-0.0265,30.3000,-28.2188,-17.7000,222.4388,-14.7443,-10.4218,
1.425157,-0.1564,0.1785,0.9931,0.2123,-0.7240,0.2683,-0.0250,-0.0825,-0.0265,30.3000,-28.2188,-17.7000,222.4388,-14.7443,-10.4218,
1.431869,-0.1476,0.1776,1.0021,0.2123,-0.7240,0.2683,-0.0250,-0.0825,-0.0265,30.3000,-28.2188,-17.7000,222.4388,-14.7443,-10.4218,
1.435926,-0.1493,0.1785,0.9970,0.2123,-0.7240,0.2683,-0.0250,-0.0825,-0.0265,30.3000,-28.2188,-17.7000,222.4388,-14.7443,-10.4218,
1.440556,-0.1493,0.1785,0.9970,0.2123,-0.7240,0.2683,-0.0169,-0.0814,-0.0266,30.3000,-28.2188,-17.7000,222.4388,-14.7443,-10.4218,
1.445252,-0.1493,0.1785,0.9970,0.2123,-0.7240,0.2683,-0.0169,-0.0814,-0.0266,30.3000,-28.2188,-17.7000,222.4388,-14.7443,-10.4218,
1.448880,-0.1493,0.1785,0.9970,0.3254,-0.6558,0.5205,-0.0169,-0.0814,-0.0266,30.3000,-28.2188,-17.7000,222.4388,-14.7443,-10.4218,
1.468126,-0.1493,0.1785,0.9970,0.3254,-0.6558,0.5205,-0.0169,-0.0814,-0.0266,30.1500,-28.1625,-17.8313,222.4388,-14.7443,-10.4218,
1.492945,-0.1493,0.1785,0.9970,0.3254,-0.6558,0.5205,-0.0106,-0.0794,-0.0282,30.1500,-28.1625,-17.8313,222.4388,-14.7443,-10.4218,
1.501778,-0.1493,0.1785,0.9970,0.2670,-0.5106,0.2852,-0.0106,-0.0794,-0.0282,30.1500,-28.1625,-17.8313,222.4388,-14.7443,-10.4218,
1.508664,-0.1493,0.1785,0.9970,0.2670,-0.5106,0.2852,-0.0106,-0.0794,-0.0282,30.1500,-28.1625,-17.8313,222.7937,-13.9938,-10.4333,
1.515977,-0.1476,0.1815,0.9955,0.2670,-0.5106,0.2852,-0.0106,-0.0794,-0.0282,30.1500,-28.1625,-17.8313,222.7937,-13.9938,-10.4333,
1.521207,-0.1459,0.1888,0.9819,0.2670,-0.5106,0.2852,-0.0106,-0.0794,-0.0282,30.1500,-28.1625,-17.8313,222.7937,-13.9938,-10.4333,
1.525098,-0.1561,0.1849,0.9850,0.2670,-0.5106,0.2852,-0.0106,-0.0794,-0.0282,30.1500,-28.1625,-17.8313,222.7937,-13.9938,-10.4333,
1.529066,-0.1535,0.1837,0.9814,0.2670,-0.5106,0.2852,-0.0106,-0.0794,-0.0282,30.1500,-28.1625,-17.8313,222.7937,-13.9938,-10.4333,
1.532829,-0.1481,0.1912,0.9571,0.2670,-0.5106,0.2852,-0.0106,-0.0794,-0.0282,30.1500,-28.1625,-17.8313,222.7937,-13.9938,-10.4333,
1.537997,-0.1481,0.1912,0.9571,0.2670,-0.5106,0.2852,-0.0106,-0.0794,-0.0282,30.0938,-28.2563,-17.9813,222.7937,-13.9938,-10.4333,
1.557960,-0.1481,0.1912,0.9571,0.2670,-0.5106,0.2852,-0.0078,-0.0770,-0.0298,30.0938,-28.2563,-17.9813,222.7937,-13.9938,-10.4333,
1.560990,-0.1481,0.1912,0.9571,0.3006,-0.4364,0.0840,-0.0078,-0.0770,-0.0298,30.0938,-28.2563,-17.9813,222.7937,-13.9938,-10.4333,
1.563366,-0.1481,0.1912,0.9571,0.3006,-0.4364,0.0840,-0.0078,-0.0770,-0.0298,30.0938,-28.2563,-17.9813,222.7937,-13.9938,-10.4333,
1.605789,-0.1500,0.1890,0.9571,0.3006,-0.4364,0.0840,-0.0078,-0.0770,-0.0298,30.0938,-28.2563,-17.9813,222.7937,-13.9938,-10.4333,
1.609062,-0.1515,0.1842,0.9906,0.3006,-0.4364,0.0840,-0.0078,-0.0770,-0.0298,30.0938,-28.2563,-17.9813,222.7937,-13.9938,-10.4333,
1.611246,-0.1579,0.1795,1.0092,0.3006,-0.4364,0.0840,-0.0078,-0.0770,-0.0298,30.0938,-28.2563,-17.9813,222.7937,-13.9938,-10.4333,
1.613430,-0.1554,0.1871,0.9914,0.3006,-0.4364,0.0840,-0.0078,-0.0770,-0.0298,30.0938,-28.2563,-17.9813,222.7937,-13.9938,-10.4333,
1.615672,-0.1520,0.1915,0.9853,0.3006,-0.4364,0.0840,-0.0078,-0.0770,-0.0298,30.0938,-28.2563,-17.9813,222.7937,-13.9938,-10.4333,
1.617825,-0.1520,0.1915,0.9853,0.3006,-0.4364,0.0840,-0.0078,-0.0770,-0.0298,30.0375,-28.3125,-18.0375,222.7937,-13.9938,-10.4333,
1.624649,-0.1520,0.1915,0.9853,0.3006,-0.4364,0.0840,-0.0073,-0.0729,-0.0289,30.0375,-28.3125,-18.0375,222.7937,-13.9938,-10.4333,
1.627815,-0.1520,0.1915,0.9853,0.2632,-0.3465,0.2376,-0.0073,-0.0729,-0.0289,30.0375,-28.3125,-18.0375,222.7937,-13.9938,-10.4333,
1.630107,-0.1520,0.1915,0.9853,0.2632,-0.3465,0.2376,-0.0073,-0.0729,-0.0289,30.0375,-28.3125,-18.0375,223.1417,-13.3387,-10.3542,
1.675043,-0.1520,0.1915,0.9853,0.2632,-0.3465,0.2376,-0.0073,-0.0729,-0.0289,29.9625,-28.4250,-18.0188,223.1417,-13.3387,-10.3542,
1.691479,-0.1520,0.1915,0.9853,0.2632,-0.3465,0.2376,-0.0067,-0.0667,-0.0261,29.9625,-28.4250,-18.0188,223.1417,-13.3387,-10.3542,
1.696605,-0.1520,0.1915,0.9853,0.2632,-0.3465,0.2376,-0.0067,-0.0667,-0.0261,29.9625,-28.4250,-18.0188,223.1417,-13.3387,-10.3542,
1.701600,-0.1520,0.1915,0.9853,0.2348,-0.3769,0.5448,-0.0067,-0.0667,-0.0261,29.9625,-28.4250,-18.0188,223.1417,-13.3387,-10.3542,
1.707133,-0.1461,0.1942,0.9933,0.2348,-0.3769,0.5448,-0.0067,-0.0667,-0.0261,29.9625,-28.4250,-18.0188,223.1417,-13.3387,-10.3542,
1.714474,-0.1354,0.1983,0.9941,0.2348,-0.3769,0.5448,-0.0067,-0.0667,-0.0261,29.9625,-28.4250,-18.0188,223.1417,-13.3387,-10.3542,
1.719423,-0.1505,0.1876,1.0114,0.2348,-0.3769,0.5448,-0.0067,-0.0667,-0.0261,29.9625,-28.4250,-18.0188,223.1417,-13.3387,-10.3542,
1.723727,-0.1660,0.1781,1.0053,0.2348,-0.3769,0.5448,-0.0067,-0.0667,-0.0261,29.9625,-28.4250,-18.0188,223.1417,-13.3387,-10.3542,
1.728376,-0.1557,0.1859,0.9870,0.2348,-0.3769,0.5448,-0.0067,-0.0667,-0.0261,29.9625,-28.4250,-18.0188,223.1417,-13.3387,-10.3542,
1.747380,-0.1557,0.1859,0.9870,0.2348,-0.3769,0.5448,-0.0067,-0.0667,-0.0261,29.8313,-28.5188,-18.0188,223.1417,-13.3387,-10.3542,
1.759141,-0.1557,0.1859,0.9870,0.2348,-0.3769,0.5448,-0.0054,-0.0598,-0.0234,29.8313,-28.5188,-18.0188,223.1417,-13.3387,-10.3542,
1.768820,-0.1557,0.1859,0.9870,0.2348,-0.3769,0.5448,-0.0054,-0.0598,-0.0234,29.8313,-28.5188,-18.0188,223.4529,-12.7287,-10.2137,
1.776362,-0.1557,0.1859,0.9870,0.3497,-0.2187,-0.0675,-0.0054,-0.0598,-0.0234,29.8313,-28.5188,-18.0188,223.4529,-12.7287,-10.2137,
1.801346,-0.1393,0.1954,0.9537,0.3497,-0.2187,-0.0675,-0.0054,-0.0598,-0.0234,29.8313,-28.5188,-18.0188,223.4529,-12.7287,-10.2137,
1.803857,-0.1432,0.1927,0.9564,0.3497,-0.2187,-0.0675,-0.0054,-0.0598,-0.0234,29.8313,-28.5188,-18.0188,223.4529,-12.7287,-10.2137,
1.805462,-0.1444,0.1873,0.9726,0.3497,-0.2187,-0.0675,-0.0054,-0.0598,-0.0234,29.8313,-28.5188,-18.0188,223.4529,-12.7287,-10.2137,
1.807153,-0.1378,0.1942,0.9721,0.3497,-0.2187,-0.0675,-0.0054,-0.0598,-0.0234,29.8313,-28.5188,-18.0188,223.4529,-12.7287,-10.2137,
1.808802,-0.1405,0.2008,0.9659,0.3497,-0.2187,-0.0675,-0.0054,-0.0598,-0.0234,29.8313,-28.5188,-18.0188,223.4529,-12.7287,-10.2137,
1.814870,-0.1405,0.2008,0.9659,0.3497,-0.2187,-0.0675,-0.0054,-0.0598,-0.0234,29.7750,-28.6125,-18.0188,223.4529,-12.7287,-10.2137,
1.824607,-0.1405,0.2008,0.9659,0.3497,-0.2187,-0.0675,-0.0035,-0.0522,-0.0198,29.7750,-28.6125,-18.0188,223.4529,-12.7287,-10.2137,
1.831818,-0.1405,0.2008,0.9659,0.3120,-0.1288,0.0393,-0.0035,-0.0522,-0.0198,29.7750,-28.6125,-18.0188,223.4529,-12.7287,-10.2137,
1.833848,-0.1405,0.2008,0.9659,0.3120,-0.1288,0.0393,-0.0035,-0.0522,-0.0198,29.7750,-28.6125,-18.0188,223.4529,-12.7287,-10.2137,
1.884745,-0.1405,0.2008,0.9659,0.3120,-0.1288,0.0393,-0.0035,-0.0522,-0.0198,29.7000,-28.6688,-17.9438,223.4529,-12.7287,-10.2137,
1.890241,-0.1405,0.2008,0.9659,0.3120,-0.1288,0.0393,-0.0012,-0.0441,-0.0130,29.7000,-28.6688,-17.9438,223.4529,-12.7287,-10.2137,
1.892561,-0.1405,0.2008,0.9659,0.3948,0.0032,0.2185,-0.0012,-0.0441,-0.0130,29.7000,-28.6688,-17.9438,223.4529,-12.7287,-10.2137,
1.894757,-0.1405,0.2008,0.9659,0.3948,0.0032,0.2185,-0.0012,-0.0441,-0.0130,29.7000,-28.6688,-17.9438,223.7435,-12.1599,-10.0549,
1.899685,-0.1613,0.1939,0.9745,0.3948,0.0032,0.2185,-0.0012,-0.0441,-0.0130,29.7000,-28.6688,-17.9438,223.7435,-12.1599,-10.0549,
1.902343,-0.1574,0.1910,0.9872,0.3948,0.0032,0.2185,-0.0012,-0.0441,-0.0130,29.7000,-28.6688,-17.9438,223.7435,-12.1599,-10.0549,
1.904624,-0.1405,0.1993,0.9845,0.3948,0.0032,0.2185,-0.0012,-0.0441,-0.0130,29.7000,-28.6688,-17.9438,223.7435,-12.1599,-10.0549,
1.906820,-0.1361,0.2071,0.9911,0.3948,0.0032,0.2185,-0.0012,-0.0441,-0.0130,29.7000,-28.6688,-17.9438,223.7435,-12.1599,-10.0549,
1.909492,-0.1317,0.2030,1.0155,0.3948,0.0032,0.2185,-0.0012,-0.0441,-0.0130,29.7000,-28.6688,-17.9438,223.7435,-12.1599,-10.0549,
1.956251,-0.1317,0.2030,1.0155,0.3948,0.0032,0.2185,-0.0012,-0.0441,-0.0130,29.5125,-28.9125,-17.9625,223.7435,-12.1599,-10.0549,
1.967673,-0.1317,0.2030,1.0155,0.3295,0.0296,-0.0234,-0.0012,-0.0441,-0.0130,29.5125,-28.9125,-17.9625,223.7435,-12.1599,-10.0549,
1.975571,-0.1317,0.2030,1.0155,0.3295,0.0296,-0.0234,-0.0012,-0.0441,-0.0130,29.5125,-28.9125,-17.9625,223.7435,-12.1599,-10.0549,
1.984848,-0.1317,0.2030,1.0155,0.3295,0.0296,-0.0234,0.0021,-0.0383,-0.0040,29.5125,-28.9125,-17.9625,223.7435,-12.1599,-10.0549,
1.998034,-0.1351,0.2122,1.0090,0.3295,0.0296,-0.0234,0.0021,-0.0383,-0.0040,29.5125,-28.9125,-17.9625,223.7435,-12.1599,-10.0549,
2.006095,-0.1376,0.2049,0.9701,0.3295,0.0296,-0.0234,0.0021,-0.0383,-0.0040,29.5125,-28.9125,-17.9625,223.7435,-12.1599,-10.0549,
2.011306,-0.1276,0.2081,0.9566,0.3295,0.0296,-0.0234,0.0021,-0.0383,-0.0040,29.5125,-28.9125,-17.9625,223.7435,-12.1599,-10.0549,
2.017467,-0.1278,0.2103,0.9945,0.3295,0.0296,-0.0234,0.0021,-0.0383,-0.0040,29.5125,-28.9125,-17.9625,223.7435,-12.1599,-10.0549,
2.022496,-0.1325,0.2103,1.0085,0.3295,0.0296,-0.0234,0.0021,-0.0383,-0.0040,29.5125,-28.9125,-17.9625,223.7435,-12.1599,-10.0549,
2.027867,-0.1325,0.2103,1.0085,0.3295,0.0296,-0.0234,0.0071,-0.0374,0.0041,29.5125,-28.9125,-17.9625,223.7435,-12.1599,-10.0549,
2.032845,-0.1325,0.2103,1.0085,0.3724,0.2090,0.2145,0.0071,-0.0374,0.0041,29.5125,-28.9125,-17.9625,223.7435,-12.1599,-10.0549,
2.034830,-0.1325,0.2103,1.0085,0.3724,0.2090,0.2145,0.0071,-0.0374,0.0041,29.5125,-28.9125,-17.9625,223.9613,-11.6037,-9.9225,
2.036605,-0.1325,0.2103,1.0085,0.3724,0.2090,0.2145,0.0071,-0.0374,0.0041,29.4375,-29.1375,-17.9062,223.9613,-11.6037,-9.9225,
2.092574,-0.1325,0.2103,1.0085,0.3724,0.2090,0.2145,0.0138,-0.0402,0.0115,29.4375,-29.1375,-17.9062,223.9613,-11.6037,-9.9225,
2.106002,-0.1325,0.2103,1.0085,0.5543,0.1864,0.2460,0.0138,-0.0402,0.0115,29.4375,-29.1375,-17.9062,223.9613,-11.6037,-9.9225,
2.114803,-0.1325,0.2103,1.0085,0.5543,0.1864,0.2460,0.0138,-0.0402,0.0115,29.4375,-29.1375,-17.9062,223.9613,-11.6037,-9.9225,
2.120118,-0.1325,0.2103,1.0085,0.5543,0.1864,0.2460,0.0138,-0.0402,0.0115,29.2875,-29.3063,-17.7938,223.9613,-11.6037,-9.9225,
2.124093,-0.1312,0.2186,0.9760,0.5543,0.1864,0.2460,0.0138,-0.0402,0.0115,29.2875,-29.3063,-17.7938,223.9613,-11.6037,-9.9225,
2.128487,-0.1354,0.2161,0.9637,0.5543,0.1864,0.2460,0.0138,-0.0402,0.0115,29.2875,-29.3063,-17.7938,223.9613,-11.6037,-9.9225,
2.133050,-0.1298,0.2005,0.9933,0.5543,0.1864,0.2460,0.0138,-0.0402,0.0115,29.2875,-29.3063,-17.7938,223.9613,-11.6037,-9.9225,
2.134991,-0.1188,0.2081,0.9970,0.5543,0.1864,0.2460,0.0138,-0.0402,0.0115,29.2875,-29.3063,-17.7938,223.9613,-11.6037,-9.9225,
2.136635,-0.0983,0.2198,0.9762,0.5543,0.1864,0.2460,0.0138,-0.0402,0.0115,29.2875,-29.3063,-17.7938,223.9613,-11.6037,-9.9225,
2.160256,-0.0983,0.2198,0.9762,0.5543,0.1864,0.2460,0.0212,-0.0423,0.0202,29.2875,-29.3063,-17.7938,223.9613,-11.6037,-9.9225,
2.170993,-0.0983,0.2198,0.9762,0.3879,0.1641,0.2780,0.0212,-0.0423,0.0202,29.2875,-29.3063,-17.7938,223.9613,-11.6037,-9.9225,
2.177026,-0.0983,0.2198,0.9762,0.3879,0.1641,0.2780,0.0212,-0.0423,0.0202,29.2875,-29.3063,-17.7938,224.1045,-11.0866,-9.7301,
2.185641,-0.0983,0.2198,0.9762,0.3879,0.1641,0.2780,0.0212,-0.0423,0.0202,29.1000,-29.5688,-17.7188,224.1045,-11.0866,-9.7301,
2.196411,-0.1107,0.2181,0.9801,0.3879,0.1641,0.2780,0.0212,-0.0423,0.0202,29.1000,-29.5688,-17.7188,224.1045,-11.0866,-9.7301,
2.204174,-0.1273,0.2088,0.9950,0.3879,0.1641,0.2780,0.0212,-0.0423,0.0202,29.1000,-29.5688,-17.7188,224.1045,-11.0866,-9.7301,
2.209158,-0.1325,0.2066,0.9938,0.3879,0.1641,0.2780,0.0212,-0.0423,0.0202,29.1000,-29.5688,-17.7188,224.1045,-11.0866,-9.7301,
2.214673,-0.1449,0.2037,0.9919,0.3879,0.1641,0.2780,0.0212,-0.0423,0.0202,29.1000,-29.5688,-17.7188,224.1045,-11.0866,-9.7301,
2.220237,-0.1398,0.2020,0.9819,0.3879,0.1641,0.2780,0.0212,-0.0423,0.0202,29.1000,-29.5688,-17.7188,224.1045,-11.0866,-9.7301,
2.228919,-0.1398,0.2020,0.9819,0.3879,0.1641,0.2780,0.0268,-0.0427,0.0298,29.1000,-29.5688,-17.7188,224.1045,-11.0866,-9.7301,
2.233854,-0.1398,0.2020,0.9819,0.5364,0.3360,-0.0333,0.0268,-0.0427,0.0298,29.1000,-29.5688,-17.7188,224.1045,-11.0866,-9.7301,
2.235637,-0.1398,0.2020,0.9819,0.5364,0.3360,-0.0333,0.0268,-0.0427,0.0298,29.1000,-29.5688,-17.7188,224.1045,-11.0866,-9.7301,
2.237228,-0.1398,0.2020,0.9819,0.5364,0.3360,-0.0333,0.0268,-0.0427,0.0298,28.8750,-29.7000,-17.7563,224.1045,-11.0866,-9.7301,
2.292561,-0.1398,0.2020,0.9819,0.5364,0.3360,-0.0333,0.0283,-0.0425,0.0383,28.8750,-29.7000,-17.7563,224.1045,-11.0866,-9.7301,
2.302438,-0.1398,0.2020,0.9819,0.1903,0.1771,0.4616,0.0283,-0.0425,0.0383,28.8750,-29.7000,-17.7563,224.1045,-11.0866,-9.7301,
2.309762,-0.1190,0.2174,0.9704,0.1903,0.1771,0.4616,0.0283,-0.0425,0.0383,28.8750,-29.7000,-17.7563,224.1045,-11.0866,-9.7301,
2.317494,-0.1112,0.2257,0.9605,0.1903,0.1771,0.4616,0.0283,-0.0425,0.0383,28.8750,-29.7000,-17.7563,224.1045,-11.0866,-9.7301,
2.321932,-0.1295,0.2201,0.9745,0.1903,0.1771,0.4616,0.0283,-0.0425,0.0383,28.8750,-29.7000,-17.7563,224.1045,-11.0866,-9.7301,
2.326993,-0.1564,0.2093,0.9853,0.1903,0.1771,0.4616,0.0283,-0.0425,0.0383,28.8750,-29.7000,-17.7563,224.1045,-11.0866,-9.7301,
2.332766,-0.1388,0.2042,1.0163,0.1903,0.1771,0.4616,0.0283,-0.0425,0.0383,28.8750,-29.7000,-17.7563,224.1045,-11.0866,-9.7301,
2.334772,-0.1388,0.2042,1.0163,0.1903,0.1771,0.4616,0.0283,-0.0425,0.0383,28.8750,-29.7000,-17.7563,224.1578,-10.7963,-9.4389,
2.336528,-0.1388,0.2042,1.0163,0.1903,0.1771,0.4616,0.0283,-0.0425,0.0383,28.7438,-29.8313,-17.6438,224.1578,-10.7963,-9.4389,
2.359033,-0.1388,0.2042,1.0163,0.1903,0.1771,0.4616,0.0261,-0.0394,0.0448,28.7438,-29.8313,-17.6438,224.1578,-10.7963,-9.4389,
2.365334,-0.1388,0.2042,1.0163,0.1903,0.1771,0.4616,0.0261,-0.0394,0.0448,28.7438,-29.8313,-17.6438,224.1578,-10.7963,-9.4389,
2.368604,-0.1388,0.2042,1.0163,0.1871,0.3799,-0.2089,0.0261,-0.0394,0.0448,28.7438,-29.8313,-17.6438,224.1578,-10.7963,-9.4389,
2.377237,-0.1388,0.2042,1.0163,0.1871,0.3799,-0.2089,0.0261,-0.0394,0.0448,28.5188,-30.0563,-17.5500,224.1578,-10.7963,-9.4389,
2.390956,-0.1195,0.2225,0.9870,0.1871,0.3799,-0.2089,0.0261,-0.0394,0.0448,28.5188,-30.0563,-17.5500,224.1578,-10.7963,-9.4389,
2.401630,-0.1242,0.2331,0.9513,0.1871,0.3799,-0.2089,0.0261,-0.0394,0.0448,28.5188,-30.0563,-17.5500,224.1578,-10.7963,-9.4389,
2.405954,-0.1408,0.2265,0.9452,0.1871,0.3799,-0.2089,0.0261,-0.0394,0.0448,28.5188,-30.0563,-17.5500,224.1578,-10.7963,-9.4389,
2.411572,-0.1359,0.2174,0.9867,0.1871,0.3799,-0.2089,0.0261,-0.0394,0.0448,28.5188,-30.0563,-17.5500,224.1578,-10.7963,-9.4389,
2.413901,-0.1171,0.2100,1.0148,0.1871,0.3799,-0.2089,0.0261,-0.0394,0.0448,28.5188,-30.0563,-17.5500,224.1578,-10.7963,-9.4389,
2.425530,-0.1171,0.2100,1.0148,0.1871,0.3799,-0.2089,0.0231,-0.0310,0.0494,28.5188,-30.0563,-17.5500,224.1578,-10.7963,-9.4389,
2.428331,-0.1171,0.2100,1.0148,0.2702,0.3054,0.0936,0.0231,-0.0310,0.0494,28.5188,-30.0563,-17.5500,224.1578,-10.7963,-9.4389,
2.430064,-0.1171,0.2100,1.0148,0.2702,0.3054,0.0936,0.0231,-0.0310,0.0494,28.5188,-30.0563,-17.5500,224.1578,-10.7963,-9.4389,
2.447740,-0.1171,0.2100,1.0148,0.2702,0.3054,0.0936,0.0231,-0.0310,0.0494,28.3313,-30.3000,-17.4938,224.1578,-10.7963,-9.4389,
2.489806,-0.1246,0.2147,0.9997,0.2702,0.3054,0.0936,0.0231,-0.0310,0.0494,28.3313,-30.3000,-17.4938,224.1578,-10.7963,-9.4389,
2.503519,-0.1351,0.2166,0.9745,0.2702,0.3054,0.0936,0.0231,-0.0310,0.0494,28.3313,-30.3000,-17.4938,224.1578,-10.7963,-9.4389,
2.511749,-0.1342,0.2179,0.9657,0.2702,0.3054,0.0936,0.0231,-0.0310,0.0494,28.3313,-30.3000,-17.4938,224.1578,-10.7963,-9.4389,
2.519560,-0.1249,0.2230,0.9833,0.2702,0.3054,0.0936,0.0231,-0.0310,0.0494,28.3313,-30.3000,-17.4938,224.1578,-10.7963,-9.4389,
2.526468,-0.1295,0.2149,0.9914,0.2702,0.3054,0.0936,0.0231,-0.0310,0.0494,28.3313,-30.3000,-17.4938,224.1578,-10.7963,-9.4389,
2.532047,-0.1295,0.2149,0.9914,0.2702,0.3054,0.0936,0.0231,-0.0310,0.0494,28.3313,-30.3000,-17.4938,224.0007,-10.8222,-8.9874,
2.534077,-0.1295,0.2149,0.9914,0.2481,0.2567,0.2157,0.0231,-0.0310,0.0494,28.3313,-30.3000,-17.4938,224.0007,-10.8222,-8.9874,
2.535897,-0.1295,0.2149,0.9914,0.2481,0.2567,0.2157,0.0210,-0.0201,0.0524,28.3313,-30.3000,-17.4938,224.0007,-10.8222,-8.9874,
2.537672,-0.1295,0.2149,0.9914,0.2481,0.2567,0.2157,0.0210,-0.0201,0.0524,28.2938,-30.3938,-17.4938,224.0007,-10.8222,-8.9874,
2.561049,-0.1295,0.2149,0.9914,0.2481,0.2567,0.2157,0.0191,-0.0132,0.0524,28.2938,-30.3938,-17.4938,224.0007,-10.8222,-8.9874,
2.569031,-0.1295,0.2149,0.9914,0.2481,0.2567,0.2157,0.0191,-0.0132,0.0524,28.2938,-30.3938,-17.4938,224.0007,-10.8222,-8.9874,
2.573270,-0.1295,0.2149,0.9914,0.1582,0.3781,0.3159,0.0191,-0.0132,0.0524,28.2938,-30.3938,-17.4938,224.0007,-10.8222,-8.9874,
2.584839,-0.1295,0.2149,0.9914,0.1582,0.3781,0.3159,0.0191,-0.0132,0.0524,28.2563,-30.5063,-17.5312,224.0007,-10.8222,-8.9874,
2.587356,-0.1393,0.2086,0.9958,0.1582,0.3781,0.3159,0.0191,-0.0132,0.0524,28.2563,-30.5063,-17.5312,224.0007,-10.8222,-8.9874,
2.589096,-0.1386,0.2147,0.9845,0.1582,0.3781,0.3159,0.0191,-0.0132,0.0524,28.2563,-30.5063,-17.5312,224.0007,-10.8222,-8.9874,
2.590857,-0.1300,0.2218,0.9928,0.1582,0.3781,0.3159,0.0191,-0.0132,0.0524,28.2563,-30.5063,-17.5312,224.0007,-10.8222,-8.9874,
2.594986,-0.1349,0.2201,0.9982,0.1582,0.3781,0.3159,0.0191,-0.0132,0.0524,28.2563,-30.5063,-17.5312,224.0007,-10.8222,-8.9874,
2.598308,-0.1337,0.2122,0.9858,0.1582,0.3781,0.3159,0.0191,-0.0132,0.0524,28.2563,-30.5063,-17.5312,224.0007,-10.8222,-8.9874,
2.624150,-0.1337,0.2122,0.9858,0.1582,0.3781,0.3159,0.0162,-0.0124,0.0490,28.2563,-30.5063,-17.5312,224.0007,-10.8222,-8.9874,
2.626677,-0.1337,0.2122,0.9858,0.1582,0.3781,0.3159,0.0162,-0.0124,0.0490,28.2563,-30.5063,-17.5312,224.0007,-10.8222,-8.9874,
2.628136,-0.1337,0.2122,0.9858,0.1397,0.3624,0.3161,0.0162,-0.0124,0.0490,28.2563,-30.5063,-17.5312,224.0007,-10.8222,-8.9874,
2.655787,-0.1337,0.2122,0.9858,0.1397,0.3624,0.3161,0.0162,-0.0124,0.0490,28.2750,-30.5438,-17.5500,224.0007,-10.8222,-8.9874,
2.686482,-0.1388,0.2144,0.9723,0.1397,0.3624,0.3161,0.0162,-0.0124,0.0490,28.2750,-30.5438,-17.5500,224.0007,-10.8222,-8.9874,
2.689359,-0.1471,0.2113,0.9755,0.1397,0.3624,0.3161,0.0162,-0.0124,0.0490,28.2750,-30.5438,-17.5500,224.0007,-10.8222,-8.9874,
2.691630,-0.1420,0.2125,0.9860,0.1397,0.3624,0.3161,0.0162,-0.0124,0.0490,28.2750,-30.5438,-17.5500,224.0007,-10.8222,-8.9874,
2.693680,-0.1403,0.2201,0.9704,0.1397,0.3624,0.3161,0.0162,-0.0124,0.0490,28.2750,-30.5438,-17.5500,224.0007,-10.8222,-8.9874,
2.695717,-0.1185,0.2249,0.9505,0.1397,0.3624,0.3161,0.0162,-0.0124,0.0490,28.2750,-30.5438,-17.5500,224.0007,-10.8222,-8.9874,
2.697875,-0.1185,0.2249,0.9505,0.0259,0.1976,0.0866,0.0162,-0.0124,0.0490,28.2750,-30.5438,-17.5500,224.0007,-10.8222,-8.9874,
2.700058,-0.1185,0.2249,0.9505,0.0259,0.1976,0.0866,0.0131,-0.0140,0.0456,28.2750,-30.5438,-17.5500,224.0007,-10.8222,-8.9874,
2.702124,-0.1185,0.2249,0.9505,0.0259,0.1976,0.0866,0.0131,-0.0140,0.0456,28.2750,-30.5438,-17.5500,223.6211,-11.1096,-8.6363,
2.724873,-0.1185,0.2249,0.9505,0.0259,0.1976,0.0866,0.0131,-0.0140,0.0456,28.3313,-30.5625,-17.4750,223.6211,-11.1096,-8.6363,
2.758096,-0.1185,0.2249,0.9505,0.0259,0.1976,0.0866,0.0123,-0.0139,0.0454,28.3313,-30.5625,-17.4750,223.6211,-11.1096,-8.6363,
2.768760,-0.1185,0.2249,0.9505,0.0259,0.1976,0.0866,0.0123,-0.0139,0.0454,28.3313,-30.5625,-17.4750,223.6211,-11.1096,-8.6363,
2.777682,-0.1185,0.2249,0.9505,0.1788,0.4874,-0.1822,0.0123,-0.0139,0.0454,28.3313,-30.5625,-17.4750,223.6211,-11.1096,-8.6363,
2.787526,-0.1364,0.2396,0.9552,0.1788,0.4874,-0.1822,0.0123,-0.0139,0.0454,28.3313,-30.5625,-17.4750,223.6211,-11.1096,-8.6363,
2.794165,-0.1515,0.2088,0.9779,0.1788,0.4874,-0.1822,0.0123,-0.0139,0.0454,28.3313,-30.5625,-17.4750,223.6211,-11.1096,-8.6363,
2.797673,-0.1408,0.1956,1.0024,0.1788,0.4874,-0.1822,0.0123,-0.0139,0.0454,28.3313,-30.5625,-17.4750,223.6211,-11.1096,-8.6363,
2.801449,-0.1217,0.2331,0.9642,0.1788,0.4874,-0.1822,0.0123,-0.0139,0.0454,28.3313,-30.5625,-17.4750,223.6211,-11.1096,-8.6363,
2.804666,-0.1364,0.2658,0.9862,0.1788,0.4874,-0.1822,0.0123,-0.0139,0.0454,28.3313,-30.5625,-17.4750,223.6211,-11.1096,-8.6363,
2.807851,-0.1364,0.2658,0.9862,0.1788,0.4874,-0.1822,0.0123,-0.0139,0.0454,28.2563,-30.6188,-17.3813,223.6211,-11.1096,-8.6363,
2.825104,-0.1364,0.2658,0.9862,0.1788,0.4874,-0.1822,0.0146,-0.0115,0.0472,28.2563,-30.6188,-17.3813,223.6211,-11.1096,-8.6363,
2.827367,-0.1364,0.2658,0.9862,0.3454,0.4537,-0.1874,0.0146,-0.0115,0.0472,28.2563,-30.6188,-17.3813,223.6211,-11.1096,-8.6363,
2.829407,-0.1364,0.2658,0.9862,0.3454,0.4537,-0.1874,0.0146,-0.0115,0.0472,28.2563,-30.6188,-17.3813,223.6211,-11.1096,-8.6363,
2.865196,-0.1364,0.2658,0.9862,0.3454,0.4537,-0.1874,0.0146,-0.0115,0.0472,28.2563,-30.6750,-17.4375,223.6211,-11.1096,-8.6363,
2.882105,-0.1305,0.2353,0.9755,0.3454,0.4537,-0.1874,0.0146,-0.0115,0.0472,28.2563,-30.6750,-17.4375,223.6211,-11.1096,-8.6363,
2.890513,-0.1515,0.1737,0.9562,0.3454,0.4537,-0.1874,0.0146,-0.0115,0.0472,28.2563,-30.6750,-17.4375,223.6211,-11.1096,-8.6363,
2.897978,-0.1515,0.1868,0.9408,0.3454,0.4537,-0.1874,0.0146,-0.0115,0.0472,28.2563,-30.6750,-17.4375,223.6211,-11.1096,-8.6363,
2.904644,-0.1242,0.2270,0.9743,0.3454,0.4537,-0.1874,0.0146,-0.0115,0.0472,28.2563,-30.6750,-17.4375,223.6211,-11.1096,-8.6363,
2.911200,-0.1276,0.2152,0.9970,0.3454,0.4537,-0.1874,0.0146,-0.0115,0.0472,28.2563,-30.6750,-17.4375,223.6211,-11.1096,-8.6363,
2.915684,-0.1276,0.2152,0.9970,0.3454,0.4537,-0.1874,0.0178,-0.0087,0.0462,28.2563,-30.6750,-17.4375,223.6211,-11.1096,-8.6363,
2.920822,-0.1276,0.2152,0.9970,-0.1041,-0.1754,-0.4458,0.0178,-0.0087,0.0462,28.2563,-30.6750,-17.4375,223.6211,-11.1096,-8.6363,
2.925924,-0.1276,0.2152,0.9970,-0.1041,-0.1754,-0.4458,0.0178,-0.0087,0.0462,28.2563,-30.6750,-17.4375,223.6211,-11.1096,-8.6363,
2.935880,-0.1276,0.2152,0.9970,-0.1041,-0.1754,-0.4458,0.0178,-0.0087,0.0462,28.1813,-30.6938,-17.4938,223.6211,-11.1096,-8.6363,
2.958073,-0.1276,0.2152,0.9970,-0.1041,-0.1754,-0.4458,0.0174,-0.0067,0.0407,28.1813,-30.6938,-17.4938,223.6211,-11.1096,-8.6363,
2.966787,-0.1276,0.2152,0.9970,0.1223,0.0742,0.2771,0.0174,-0.0067,0.0407,28.1813,-30.6938,-17.4938,223.6211,-11.1096,-8.6363,
2.971223,-0.1276,0.2152,0.9970,0.1223,0.0742,0.2771,0.0174,-0.0067,0.0407,28.1813,-30.6938,-17.4938,223.0643,-11.3519,-8.2723,
2.982427,-0.1290,0.2054,0.9943,0.1223,0.0742,0.2771,0.0174,-0.0067,0.0407,28.1813,-30.6938,-17.4938,223.0643,-11.3519,-8.2723,
2.990965,-0.1483,0.2044,1.0392,0.1223,0.0742,0.2771,0.0174,-0.0067,0.0407,28.1813,-30.6938,-17.4938,223.0643,-11.3519,-8.2723,
2.996885,-0.1403,0.2061,1.0326,0.1223,0.0742,0.2771,0.0174,-0.0067,0.0407,28.1813,-30.6938,-17.4938,223.0643,-11.3519,-8.2723,
3.002726,-0.1456,0.2144,0.9965,0.1223,0.0742,0.2771,0.0174,-0.0067,0.0407,28.1813,-30.6938,-17.4938,223.0643,-11.3519,-8.2723,
3.007355,-0.1674,0.2098,0.9525,0.1223,0.0742,0.2771,0.0174,-0.0067,0.0407,28.1813,-30.6938,-17.4938,223.0643,-11.3519,-8.2723,
3.012650,-0.1674,0.2098,0.9525,0.1223,0.0742,0.2771,0.0174,-0.0067,0.0407,28.0500,-30.6938,-17.5125,223.0643,-11.3519,-8.2723,
3.025276,-0.1674,0.2098,0.9525,0.1223,0.0742,0.2771,0.0174,-0.0067,0.0407,28.0500,-30.6938,-17.5125,223.0643,-11.3519,-8.2723,
3.027751,-0.1674,0.2098,0.9525,-0.2229,0.1397,-0.1298,0.0174,-0.0067,0.0407,28.0500,-30.6938,-17.5125,223.0643,-11.3519,-8.2723,
3.029528,-0.1674,0.2098,0.9525,-0.2229,0.1397,-0.1298,0.0123,-0.0061,0.0335,28.0500,-30.6938,-17.5125,223.0643,-11.3519,-8.2723,
3.076395,-0.1674,0.2098,0.9525,-0.2229,0.1397,-0.1298,0.0123,-0.0061,0.0335,27.8063,-30.8250,-17.5312,223.0643,-11.3519,-8.2723,
3.084661,-0.1586,0.2188,0.9537,-0.2229,0.1397,-0.1298,0.0123,-0.0061,0.0335,27.8063,-30.8250,-17.5312,223.0643,-11.3519,-8.2723,
3.089435,-0.1298,0.2333,0.9855,-0.2229,0.1397,-0.1298,0.0123,-0.0061,0.0335,27.8063,-30.8250,-17.5312,223.0643,-11.3519,-8.2723,
3.095240,-0.0592,0.2274,0.9684,-0.2229,0.1397,-0.1298,0.0123,-0.0061,0.0335,27.8063,-30.8250,-17.5312,223.0643,-11.3519,-8.2723,
3.099444,-0.1447,0.2470,0.9344,-0.2229,0.1397,-0.1298,0.0123,-0.0061,0.0335,27.8063,-30.8250,-17.5312,223.0643,-11.3519,-8.2723,
3.103997,-0.0634,0.2333,1.0055,-0.2229,0.1397,-0.1298,0.0123,-0.0061,0.0335,27.8063,-30.8250,-17.5312,223.0643,-11.3519,-8.2723,
3.109113,-0.0634,0.2333,1.0055,1.1725,0.1391,-0.0776,0.0123,-0.0061,0.0335,27.8063,-30.8250,-17.5312,223.0643,-11.3519,-8.2723,
3.114156,-0.0634,0.2333,1.0055,1.1725,0.1391,-0.0776,0.0066,-0.0077,0.0272,27.8063,-30.8250,-17.5312,223.0643,-11.3519,-8.2723,
3.119371,-0.0634,0.2333,1.0055,1.1725,0.1391,-0.0776,0.0066,-0.0077,0.0272,27.8063,-30.8250,-17.5312,223.0643,-11.3519,-8.2723,
3.149498,-0.0634,0.2333,1.0055,1.1725,0.1391,-0.0776,0.0066,-0.0077,0.0272,27.4313,-31.0500,-17.4938,223.0643,-11.3519,-8.2723,
3.157884,-0.0634,0.2333,1.0055,1.1725,0.1391,-0.0776,0.0048,-0.0112,0.0242,27.4313,-31.0500,-17.4938,223.0643,-11.3519,-8.2723,
3.164815,-0.0634,0.2333,1.0055,0.7670,0.5049,0.0469,0.0048,-0.0112,0.0242,27.4313,-31.0500,-17.4938,223.0643,-11.3519,-8.2723,
3.171421,-0.0634,0.2333,1.0055,0.7670,0.5049,0.0469,0.0048,-0.0112,0.0242,27.4313,-31.0500,-17.4938,223.0643,-11.3519,-8.2723,
3.177818,-0.0680,0.2382,0.9909,0.7670,0.5049,0.0469,0.0048,-0.0112,0.0242,27.4313,-31.0500,-17.4938,223.0643,-11.3519,-8.2723,
3.180343,-0.0548,0.2533,0.9684,0.7670,0.5049,0.0469,0.0048,-0.0112,0.0242,27.4313,-31.0500,-17.4938,223.0643,-11.3519,-8.2723,
3.182014,-0.0563,0.2558,0.9714,0.7670,0.5049,0.0469,0.0048,-0.0112,0.0242,27.4313,-31.0500,-17.4938,223.0643,-11.3519,-8.2723,
3.183762,-0.1029,0.2157,0.9696,0.7670,0.5049,0.0469,0.0048,-0.0112,0.0242,27.4313,-31.0500,-17.4938,223.0643,-11.3519,-8.2723,
3.185399,-0.1337,0.2074,0.9427,0.7670,0.5049,0.0469,0.0048,-0.0112,0.0242,27.4313,-31.0500,-17.4938,223.0643,-11.3519,-8.2723,
3.216863,-0.1337,0.2074,0.9427,0.7670,0.5049,0.0469,0.0048,-0.0112,0.0242,27.0750,-31.3313,-17.5312,223.0643,-11.3519,-8.2723,
3.229649,-0.1337,0.2074,0.9427,0.7670,0.5049,0.0469,0.0067,-0.0180,0.0279,27.0750,-31.3313,-17.5312,223.0643,-11.3519,-8.2723,
3.238834,-0.1337,0.2074,0.9427,0.7670,0.5049,0.0469,0.0067,-0.0180,0.0279,27.0750,-31.3313,-17.5312,222.6129,-11.6460,-7.8287,
3.245607,-0.1337,0.2074,0.9427,0.0998,0.1430,-0.3027,0.0067,-0.0180,0.0279,27.0750,-31.3313,-17.5312,222.6129,-11.6460,-7.8287,
3.277219,-0.0680,0.2360,0.9547,0.0998,0.1430,-0.3027,0.0067,-0.0180,0.0279,27.0750,-31.3313,-17.5312,222.6129,-11.6460,-7.8287,
3.285326,0.0056,0.2582,0.9836,0.0998,0.1430,-0.3027,0.0067,-0.0180,0.0279,27.0750,-31.3313,-17.5312,222.6129,-11.6460,-7.8287,
3.289707,-0.0469,0.2487,0.9833,0.0998,0.1430,-0.3027,0.0067,-0.0180,0.0279,27.0750,-31.3313,-17.5312,222.6129,-11.6460,-7.8287,
3.294886,-0.0800,0.2365,0.9875,0.0998,0.1430,-0.3027,0.0067,-0.0180,0.0279,27.0750,-31.3313,-17.5312,222.6129,-11.6460,-7.8287,
3.302723,-0.0868,0.2538,0.9889,0.0998,0.1430,-0.3027,0.0067,-0.0180,0.0279,27.0750,-31.3313,-17.5312,222.6129,-11.6460,-7.8287,
3.307237,-0.0868,0.2538,0.9889,0.0998,0.1430,-0.3027,0.0067,-0.0180,0.0279,26.5125,-31.5750,-17.7188,222.6129,-11.6460,-7.8287,
3.312332,-0.0868,0.2538,0.9889,0.0998,0.1430,-0.3027,0.0108,-0.0297,0.0399,26.5125,-31.5750,-17.7188,222.6129,-11.6460,-7.8287,
3.314282,-0.0868,0.2538,0.9889,0.0998,0.1430,-0.3027,0.0108,-0.0297,0.0399,26.5125,-31.5750,-17.7188,222.6129,-11.6460,-7.8287,
3.315881,-0.0868,0.2538,0.9889,0.5525,0.3350,0.1620,0.0108,-0.0297,0.0399,26.5125,-31.5750,-17.7188,222.6129,-11.6460,-7.8287,
3.356231,-0.0868,0.2538,0.9889,0.5525,0.3350,0.1620,0.0108,-0.0297,0.0399,25.9688,-31.9313,-17.8875,222.6129,-11.6460,-7.8287,
3.370182,-0.0868,0.2538,0.9889,0.5525,0.3350,0.1620,0.0176,-0.0448,0.0571,25.9688,-31.9313,-17.8875,222.6129,-11.6460,-7.8287,
3.376890,-0.0868,0.2538,0.9889,0.4656,0.5807,0.2058,0.0176,-0.0448,0.0571,25.9688,-31.9313,-17.8875,222.6129,-11.6460,-7.8287,
3.383735,-0.0868,0.2538,0.9889,0.4656,0.5807,0.2058,0.0176,-0.0448,0.0571,25.9688,-31.9313,-17.8875,222.2693,-11.8840,-7.5015,
3.389028,-0.0770,0.2577,0.9892,0.4656,0.5807,0.2058,0.0176,-0.0448,0.0571,25.9688,-31.9313,-17.8875,222.2693,-11.8840,-7.5015,
3.393405,-0.0787,0.2621,0.9926,0.4656,0.5807,0.2058,0.0176,-0.0448,0.0571,25.9688,-31.9313,-17.8875,222.2693,-11.8840,-7.5015,
3.395253,-0.0900,0.2694,0.9811,0.4656,0.5807,0.2058,0.0176,-0.0448,0.0571,25.9688,-31.9313,-17.8875,222.2693,-11.8840,-7.5015,
3.396895,-0.0508,0.2904,0.9958,0.4656,0.5807,0.2058,0.0176,-0.0448,0.0571,25.9688,-31.9313,-17.8875,222.2693,-11.8840,-7.5015,
3.398675,-0.0096,0.2939,1.0387,0.4656,0.5807,0.2058,0.0176,-0.0448,0.0571,25.9688,-31.9313,-17.8875,222.2693,-11.8840,-7.5015,
3.425763,-0.0096,0.2939,1.0387,0.4656,0.5807,0.2058,0.0279,-0.0584,0.0746,25.9688,-31.9313,-17.8875,222.2693,-11.8840,-7.5015,
3.429040,-0.0096,0.2939,1.0387,1.1250,0.7818,0.7048,0.0279,-0.0584,0.0746,25.9688,-31.9313,-17.8875,222.2693,-11.8840,-7.5015,
3.431355,-0.0096,0.2939,1.0387,1.1250,0.7818,0.7048,0.0279,-0.0584,0.0746,25.9688,-31.9313,-17.8875,222.2693,-11.8840,-7.5015,
3.433361,-0.0096,0.2939,1.0387,1.1250,0.7818,0.7048,0.0279,-0.0584,0.0746,25.2563,-32.4563,-17.9250,222.2693,-11.8840,-7.5015,
3.472469,-0.0259,0.2843,1.0356,1.1250,0.7818,0.7048,0.0279,-0.0584,0.0746,25.2563,-32.4563,-17.9250,222.2693,-11.8840,-7.5015,
3.484508,-0.0663,0.2777,0.9943,1.1250,0.7818,0.7048,0.0279,-0.0584,0.0746,25.2563,-32.4563,-17.9250,222.2693,-11.8840,-7.5015,
3.495054,-0.0634,0.2792,0.9459,1.1250,0.7818,0.7048,0.0279,-0.0584,0.0746,25.2563,-32.4563,-17.9250,222.2693,-11.8840,-7.5015,
3.499719,-0.0164,0.2968,0.9408,1.1250,0.7818,0.7048,0.0279,-0.0584,0.0746,25.2563,-32.4563,-17.9250,222.2693,-11.8840,-7.5015,
3.503444,0.0324,0.3009,0.9645,1.1250,0.7818,0.7048,0.0279,-0.0584,0.0746,25.2563,-32.4563,-17.9250,222.2693,-11.8840,-7.5015,
3.507193,0.0324,0.3009,0.9645,1.1250,0.7818,0.7048,0.0398,-0.0646,0.0914,25.2563,-32.4563,-17.9250,222.2693,-11.8840,-7.5015,
3.512819,0.0324,0.3009,0.9645,1.2442,0.8891,-0.2180,0.0398,-0.0646,0.0914,25.2563,-32.4563,-17.9250,222.2693,-11.8840,-7.5015,
3.515302,0.0324,0.3009,0.9645,1.2442,0.8891,-0.2180,0.0398,-0.0646,0.0914,25.2563,-32.4563,-17.9250,221.7581,-12.1796,-7.1234,
3.517532,0.0324,0.3009,0.9645,1.2442,0.8891,-0.2180,0.0398,-0.0646,0.0914,24.6188,-32.8500,-17.9813,221.7581,-12.1796,-7.1234,
3.559838,0.0324,0.3009,0.9645,1.2442,0.8891,-0.2180,0.0500,-0.0674,0.1070,24.6188,-32.8500,-17.9813,221.7581,-12.1796,-7.1234,
3.572903,0.0324,0.3009,0.9645,1.3425,0.5195,0.5399,0.0500,-0.0674,0.1070,24.6188,-32.8500,-17.9813,221.7581,-12.1796,-7.1234,
3.581903,0.0324,0.3009,0.9645,1.3425,0.5195,0.5399,0.0500,-0.0674,0.1070,24.6188,-32.8500,-17.9813,221.7581,-12.1796,-7.1234,
3.589140,0.0324,0.3009,0.9645,1.3425,0.5195,0.5399,0.0500,-0.0674,0.1070,23.9813,-33.3000,-18.0938,221.7581,-12.1796,-7.1234,
3.596526,0.0202,0.2892,0.9884,1.3425,0.5195,0.5399,0.0500,-0.0674,0.1070,23.9813,-33.3000,-18.0938,221.7581,-12.1796,-7.1234,
3.600934,0.0241,0.2760,1.0221,1.3425,0.5195,0.5399,0.0500,-0.0674,0.1070,23.9813,-33.3000,-18.0938,221.7581,-12.1796,-7.1234,
3.606823,0.0119,0.2660,1.0187,1.3425,0.5195,0.5399,0.0500,-0.0674,0.1070,23.9813,-33.3000,-18.0938,221.7581,-12.1796,-7.1234,
3.611138,-0.0008,0.2658,0.9811,1.3425,0.5195,0.5399,0.0500,-0.0674,0.1070,23.9813,-33.3000,-18.0938,221.7581,-12.1796,-7.1234,
3.614971,0.0004,0.2733,0.9503,1.3425,0.5195,0.5399,0.0500,-0.0674,0.1070,23.9813,-33.3000,-18.0938,221.7581,-12.1796,-7.1234,
3.625768,0.0004,0.2733,0.9503,1.3425,0.5195,0.5399,0.0565,-0.0752,0.1178,23.9813,-33.3000,-18.0938,221.7581,-12.1796,-7.1234,
3.632815,0.0004,0.2733,0.9503,1.3425,0.5195,0.5399,0.0565,-0.0752,0.1178,23.9813,-33.3000,-18.0938,221.1884,-12.5319,-6.6379,
3.634832,0.0004,0.2733,0.9503,1.3724,0.6226,-0.3825,0.0565,-0.0752,0.1178,23.9813,-33.3000,-18.0938,221.1884,-12.5319,-6.6379,
3.636559,0.0004,0.2733,0.9503,1.3724,0.6226,-0.3825,0.0565,-0.0752,0.1178,23.3250,-33.7875,-18.1688,221.1884,-12.5319,-6.6379,
3.667768,0.0192,0.2787,0.9332,1.3724,0.6226,-0.3825,0.0565,-0.0752,0.1178,23.3250,-33.7875,-18.1688,221.1884,-12.5319,-6.6379,
3.671051,0.0395,0.2853,0.9347,1.3724,0.6226,-0.3825,0.0565,-0.0752,0.1178,23.3250,-33.7875,-18.1688,221.1884,-12.5319,-6.6379,
3.673307,0.0441,0.2841,0.9444,1.3724,0.6226,-0.3825,0.0565,-0.0752,0.1178,23.3250,-33.7875,-18.1688,221.1884,-12.5319,-6.6379,
3.675490,0.0361,0.2838,0.9425,1.3724,0.6226,-0.3825,0.0565,-0.0752,0.1178,23.3250,-33.7875,-18.1688,221.1884,-12.5319,-6.6379,
3.677549,0.0349,0.2890,0.9310,1.3724,0.6226,-0.3825,0.0565,-0.0752,0.1178,23.3250,-33.7875,-18.1688,221.1884,-12.5319,-6.6379,
3.690850,0.0349,0.2890,0.9310,1.3724,0.6226,-0.3825,0.0601,-0.0914,0.1205,23.3250,-33.7875,-18.1688,221.1884,-12.5319,-6.6379,
3.693846,0.0349,0.2890,0.9310,1.3724,0.6226,-0.3825,0.0601,-0.0914,0.1205,23.3250,-33.7875,-18.1688,221.1884,-12.5319,-6.6379,
3.695908,0.0349,0.2890,0.9310,1.4342,0.6736,-0.3659,0.0601,-0.0914,0.1205,23.3250,-33.7875,-18.1688,221.1884,-12.5319,-6.6379,
3.704745,0.0349,0.2890,0.9310,1.4342,0.6736,-0.3659,0.0601,-0.0914,0.1205,22.6500,-34.2375,-18.2812,221.1884,-12.5319,-6.6379,
3.759023,0.0349,0.2890,0.9310,1.4342,0.6736,-0.3659,0.0624,-0.1094,0.1187,22.6500,-34.2375,-18.2812,221.1884,-12.5319,-6.6379,
3.768164,0.0349,0.2890,0.9310,1.4342,0.6736,-0.3659,0.0624,-0.1094,0.1187,22.6500,-34.2375,-18.2812,220.5502,-12.9458,-6.0637,
3.781427,0.0349,0.2890,0.9310,1.1646,0.4988,2.3279,0.0624,-0.1094,0.1187,22.6500,-34.2375,-18.2812,220.5502,-12.9458,-6.0637,
3.791088,0.0329,0.2956,0.9305,1.1646,0.4988,2.3279,0.0624,-0.1094,0.1187,22.6500,-34.2375,-18.2812,220.5502,-12.9458,-6.0637,
3.795851,0.0615,0.2961,1.0060,1.1646,0.4988,2.3279,0.0624,-0.1094,0.1187,22.6500,-34.2375,-18.2812,220.5502,-12.9458,-6.0637,
3.801940,0.0446,0.2773,1.2037,1.1646,0.4988,2.3279,0.0624,-0.1094,0.1187,22.6500,-34.2375,-18.2812,220.5502,-12.9458,-6.0637,
3.807331,-0.0145,0.2707,1.0950,1.1646,0.4988,2.3279,0.0624,-0.1094,0.1187,22.6500,-34.2375,-18.2812,220.5502,-12.9458,-6.0637,
3.812072,0.0143,0.3254,0.8971,1.1646,0.4988,2.3279,0.0624,-0.1094,0.1187,22.6500,-34.2375,-18.2812,220.5502,-12.9458,-6.0637,
3.813993,0.0143,0.3254,0.8971,1.1646,0.4988,2.3279,0.0624,-0.1094,0.1187,21.8813,-34.6313,-18.2625,220.5502,-12.9458,-6.0637,
3.827358,0.0143,0.3254,0.8971,1.1646,0.4988,2.3279,0.0655,-0.1187,0.1210,21.8813,-34.6313,-18.2625,220.5502,-12.9458,-6.0637,
3.830294,0.0143,0.3254,0.8971,1.1646,0.4988,2.3279,0.0655,-0.1187,0.1210,21.8813,-34.6313,-18.2625,220.2373,-13.1694,-5.7110,
3.832395,0.0143,0.3254,0.8971,2.2969,1.3654,-0.7533,0.0655,-0.1187,0.1210,21.8813,-34.6313,-18.2625,220.2373,-13.1694,-5.7110,
3.845873,0.0143,0.3254,0.8971,2.2969,1.3654,-0.7533,0.0655,-0.1187,0.1210,21.2438,-35.0813,-18.1313,220.2373,-13.1694,-5.7110,
3.864939,0.0769,0.3745,0.8430,2.2969,1.3654,-0.7533,0.0655,-0.1187,0.1210,21.2438,-35.0813,-18.1313,220.2373,-13.1694,-5.7110,
3.870855,0.1318,0.3615,0.9129,2.2969,1.3654,-0.7533,0.0655,-0.1187,0.1210,21.2438,-35.0813,-18.1313,220.2373,-13.1694,-5.7110,
3.875746,0.0962,0.3369,0.9721,2.2969,1.3654,-0.7533,0.0655,-0.1187,0.1210,21.2438,-35.0813,-18.1313,220.2373,-13.1694,-5.7110,
3.882158,0.0713,0.3312,0.9718,2.2969,1.3654,-0.7533,0.0655,-0.1187,0.1210,21.2438,-35.0813,-18.1313,220.2373,-13.1694,-5.7110,
3.888972,0.0816,0.3471,0.9642,2.2969,1.3654,-0.7533,0.0655,-0.1187,0.1210,21.2438,-35.0813,-18.1313,220.2373,-13.1694,-5.7110,
3.893846,0.0816,0.3471,0.9642,1.7275,1.2177,-0.0695,0.0655,-0.1187,0.1210,21.2438,-35.0813,-18.1313,220.2373,-13.1694,-5.7110,
3.898121,0.0816,0.3471,0.9642,1.7275,1.2177,-0.0695,0.0655,-0.1187,0.1210,21.2438,-35.0813,-18.1313,219.9216,-13.4159,-5.3483,
3.902739,0.0816,0.3471,0.9642,1.7275,1.2177,-0.0695,0.0716,-0.1201,0.1286,21.2438,-35.0813,-18.1313,219.9216,-13.4159,-5.3483,
3.916178,0.0816,0.3471,0.9642,1.7275,1.2177,-0.0695,0.0716,-0.1201,0.1286,20.6063,-35.4750,-17.9813,219.9216,-13.4159,-5.3483,
3.959631,0.0816,0.3471,0.9642,1.7275,1.2177,-0.0695,0.0817,-0.1227,0.1331,20.6063,-35.4750,-17.9813,219.9216,-13.4159,-5.3483,
3.968802,0.0816,0.3471,0.9642,1.4483,0.8587,0.2845,0.0817,-0.1227,0.1331,20.6063,-35.4750,-17.9813,219.9216,-13.4159,-5.3483,
3.976404,0.0816,0.3471,0.9642,1.4483,0.8587,0.2845,0.0817,-0.1227,0.1331,20.6063,-35.4750,-17.9813,219.5966,-13.6687,-4.9709,
3.986406,0.0801,0.3650,0.9457,1.4483,0.8587,0.2845,0.0817,-0.1227,0.1331,20.6063,-35.4750,-17.9813,219.5966,-13.6687,-4.9709,
3.994124,0.0696,0.3603,0.9427,1.4483,0.8587,0.2845,0.0817,-0.1227,0.1331,20.6063,-35.4750,-17.9813,219.5966,-13.6687,-4.9709,
4.001120,0.0747,0.3413,0.9775,1.4483,0.8587,0.2845,0.0817,-0.1227,0.1331,20.6063,-35.4750,-17.9813,219.5966,-13.6687,-4.9709,
4.005264,0.0588,0.3202,0.9889,1.4483,0.8587,0.2845,0.0817,-0.1227,0.1331,20.6063,-35.4750,-17.9813,219.5966,-13.6687,-4.9709,
4.009563,0.0507,0.3227,0.9435,1.4483,0.8587,0.2845,0.0817,-0.1227,0.1331,20.6063,-35.4750,-17.9813,219.5966,-13.6687,-4.9709,
4.013101,0.0507,0.3227,0.9435,1.4483,0.8587,0.2845,0.0817,-0.1227,0.1331,20.2688,-35.8125,-17.9250,219.5966,-13.6687,-4.9709,
4.025131,0.0507,0.3227,0.9435,1.4483,0.8587,0.2845,0.0924,-0.1293,0.1291,20.2688,-35.8125,-17.9250,219.5966,-13.6687,-4.9709,
4.027990,0.0507,0.3227,0.9435,1.5612,0.9923,-0.4430,0.0924,-0.1293,0.1291,20.2688,-35.8125,-17.9250,219.5966,-13.6687,-4.9709,
4.029827,0.0507,0.3227,0.9435,1.5612,0.9923,-0.4430,0.0924,-0.1293,0.1291,20.2688,-35.8125,-17.9250,219.2677,-13.9226,-4.5979,
4.055335,0.0507,0.3227,0.9435,1.5612,0.9923,-0.4430,0.0924,-0.1293,0.1291,19.8750,-36.2250,-17.8500,219.2677,-13.9226,-4.5979,
4.063248,0.0781,0.3405,0.9183,1.5612,0.9923,-0.4430,0.0924,-0.1293,0.1291,19.8750,-36.2250,-17.8500,219.2677,-13.9226,-4.5979,
4.068344,0.0877,0.3440,0.9247,1.5612,0.9923,-0.4430,0.0924,-0.1293,0.1291,19.8750,-36.2250,-17.8500,219.2677,-13.9226,-4.5979,
4.072830,0.0667,0.3379,0.9498,1.5612,0.9923,-0.4430,0.0924,-0.1293,0.1291,19.8750,-36.2250,-17.8500,219.2677,-13.9226,-4.5979,
4.076714,0.0803,0.3379,0.9787,1.5612,0.9923,-0.4430,0.0924,-0.1293,0.1291,19.8750,-36.2250,-17.8500,219.2677,-13.9226,-4.5979,
4.081503,0.0549,0.3381,0.9608,1.5612,0.9923,-0.4430,0.0924,-0.1293,0.1291,19.8750,-36.2250,-17.8500,219.2677,-13.9226,-4.5979,
4.091515,0.0549,0.3381,0.9608,1.5612,0.9923,-0.4430,0.0981,-0.1328,0.1218,19.8750,-36.2250,-17.8500,219.2677,-13.9226,-4.5979,
4.099742,0.0549,0.3381,0.9608,1.3626,0.9627,-0.2360,0.0981,-0.1328,0.1218,19.8750,-36.2250,-17.8500,219.2677,-13.9226,-4.5979,
4.105676,0.0549,0.3381,0.9608,1.3626,0.9627,-0.2360,0.0981,-0.1328,0.1218,19.8750,-36.2250,-17.8500,218.9448,-14.1808,-4.2192,
4.125728,0.0549,0.3381,0.9608,1.3626,0.9627,-0.2360,0.0981,-0.1328,0.1218,19.5375,-36.5438,-17.7750,218.9448,-14.1808,-4.2192,
4.157906,0.0549,0.3381,0.9608,1.3186,0.9134,0.0338,0.0981,-0.1328,0.1218,19.5375,-36.5438,-17.7750,218.9448,-14.1808,-4.2192,
4.166898,0.0549,0.3381,0.9608,1.3186,0.9134,0.0338,0.0963,-0.1262,0.1187,19.5375,-36.5438,-17.7750,218.9448,-14.1808,-4.2192,
4.173250,0.0549,0.3381,0.9608,1.3186,0.9134,0.0338,0.0963,-0.1262,0.1187,19.5375,-36.5438,-17.7750,218.6568,-14.4432,-3.8216,
4.181677,0.0813,0.3479,0.9381,1.3186,0.9134,0.0338,0.0963,-0.1262,0.1187,19.5375,-36.5438,-17.7750,218.6568,-14.4432,-3.8216,
4.189125,0.0906,0.3503,0.9339,1.3186,0.9134,0.0338,0.0963,-0.1262,0.1187,19.5375,-36.5438,-17.7750,218.6568,-14.4432,-3.8216,
4.194102,0.0835,0.3445,0.9430,1.3186,0.9134,0.0338,0.0963,-0.1262,0.1187,19.5375,-36.5438,-17.7750,218.6568,-14.4432,-3.8216,
4.198121,0.0735,0.3420,0.9682,1.3186,0.9134,0.0338,0.0963,-0.1262,0.1187,19.5375,-36.5438,-17.7750,218.6568,-14.4432,-3.8216,
4.202504,0.0659,0.3435,0.9716,1.3186,0.9134,0.0338,0.0963,-0.1262,0.1187,19.5375,-36.5438,-17.7750,218.6568,-14.4432,-3.8216,
4.207193,0.0659,0.3435,0.9716,1.3186,0.9134,0.0338,0.0963,-0.1262,0.1187,19.2750,-36.7500,-17.6250,218.6568,-14.4432,-3.8216,
4.224685,0.0659,0.3435,0.9716,1.3186,0.9134,0.0338,0.0908,-0.1122,0.1183,19.2750,-36.7500,-17.6250,218.6568,-14.4432,-3.8216,
4.227481,0.0659,0.3435,0.9716,1.3186,0.9134,0.0338,0.0908,-0.1122,0.1183,19.2750,-36.7500,-17.6250,218.3613,-14.6936,-3.4599,
4.229235,0.0659,0.3435,0.9716,1.1179,0.8806,-0.3136,0.0908,-0.1122,0.1183,19.2750,-36.7500,-17.6250,218.3613,-14.6936,-3.4599,
4.259389,0.0693,0.3403,0.9471,1.1179,0.8806,-0.3136,0.0908,-0.1122,0.1183,19.2750,-36.7500,-17.6250,218.3613,-14.6936,-3.4599,
4.269016,0.0752,0.3479,0.9310,1.1179,0.8806,-0.3136,0.0908,-0.1122,0.1183,19.2750,-36.7500,-17.6250,218.3613,-14.6936,-3.4599,
4.275651,0.0505,0.3405,0.9386,1.1179,0.8806,-0.3136,0.0908,-0.1122,0.1183,19.2750,-36.7500,-17.6250,218.3613,-14.6936,-3.4599,
4.284864,0.0718,0.3435,0.9488,1.1179,0.8806,-0.3136,0.0908,-0.1122,0.1183,19.2750,-36.7500,-17.6250,218.3613,-14.6936,-3.4599,
4.292500,0.0774,0.3452,0.9642,1.1179,0.8806,-0.3136,0.0908,-0.1122,0.1183,19.2750,-36.7500,-17.6250,218.3613,-14.6936,-3.4599,
4.297085,0.0774,0.3452,0.9642,1.1179,0.8806,-0.3136,0.0908,-0.1122,0.1183,19.1813,-36.8063,-17.4375,218.3613,-14.6936,-3.4599,
4.301698,0.0774,0.3452,0.9642,1.1179,0.8806,-0.3136,0.0852,-0.0973,0.1138,19.1813,-36.8063,-17.4375,218.3613,-14.6936,-3.4599,
4.306391,0.0774,0.3452,0.9642,1.2327,0.8397,0.0431,0.0852,-0.0973,0.1138,19.1813,-36.8063,-17.4375,218.3613,-14.6936,-3.4599,
4.311619,0.0774,0.3452,0.9642,1.2327,0.8397,0.0431,0.0852,-0.0973,0.1138,19.1813,-36.8063,-17.4375,218.0790,-14.9353,-3.0947,
4.335858,0.0774,0.3452,0.9642,1.2327,0.8397,0.0431,0.0852,-0.0973,0.1138,19.2188,-36.8813,-17.3625,218.0790,-14.9353,-3.0947,
4.359536,0.0774,0.3452,0.9642,1.2327,0.8397,0.0431,0.0794,-0.0835,0.1034,19.2188,-36.8813,-17.3625,218.0790,-14.9353,-3.0947,
4.371846,0.0774,0.3452,0.9642,1.2327,0.8397,0.0431,0.0794,-0.0835,0.1034,19.2188,-36.8813,-17.3625,217.8188,-15.1758,-2.7260,
4.380642,0.0774,0.3452,0.9642,0.9542,0.7130,0.0171,0.0794,-0.0835,0.1034,19.2188,-36.8813,-17.3625,217.8188,-15.1758,-2.7260,
4.387658,0.0701,0.3423,0.9692,0.9542,0.7130,0.0171,0.0794,-0.0835,0.1034,19.2188,-36.8813,-17.3625,217.8188,-15.1758,-2.7260,
4.393250,0.0715,0.3452,0.9630,0.9542,0.7130,0.0171,0.0794,-0.0835,0.1034,19.2188,-36.8813,-17.3625,217.8188,-15.1758,-2.7260,
4.398134,0.0368,0.3401,0.9283,0.9542,0.7130,0.0171,0.0794,-0.0835,0.1034,19.2188,-36.8813,-17.3625,217.8188,-15.1758,-2.7260,
4.402527,0.0449,0.3379,0.9481,0.9542,0.7130,0.0171,0.0794,-0.0835,0.1034,19.2188,-36.8813,-17.3625,217.8188,-15.1758,-2.7260,
4.407690,0.0500,0.3335,0.9620,0.9542,0.7130,0.0171,0.0794,-0.0835,0.1034,19.2188,-36.8813,-17.3625,217.8188,-15.1758,-2.7260,
4.411821,0.0500,0.3335,0.9620,0.9542,0.7130,0.0171,0.0794,-0.0835,0.1034,19.1813,-37.0125,-17.3063,217.8188,-15.1758,-2.7260,
4.427475,0.0500,0.3335,0.9620,0.9542,0.7130,0.0171,0.0724,-0.0707,0.0911,19.1813,-37.0125,-17.3063,217.8188,-15.1758,-2.7260,
4.430510,0.0500,0.3335,0.9620,0.9444,0.7534,0.0015,0.0724,-0.0707,0.0911,19.1813,-37.0125,-17.3063,217.8188,-15.1758,-2.7260,
4.432618,0.0500,0.3335,0.9620,0.9444,0.7534,0.0015,0.0724,-0.0707,0.0911,19.1813,-37.0125,-17.3063,217.5690,-15.4199,-2.3606,
4.454910,0.0356,0.3315,0.9535,0.9444,0.7534,0.0015,0.0724,-0.0707,0.0911,19.1813,-37.0125,-17.3063,217.5690,-15.4199,-2.3606,
4.460530,0.0497,0.3335,0.9562,0.9444,0.7534,0.0015,0.0724,-0.0707,0.0911,19.1813,-37.0125,-17.3063,217.5690,-15.4199,-2.3606,
4.465724,0.0549,0.3398,0.9615,0.9444,0.7534,0.0015,0.0724,-0.0707,0.0911,19.1813,-37.0125,-17.3063,217.5690,-15.4199,-2.3606,
4.472397,0.0628,0.3425,0.9583,0.9444,0.7534,0.0015,0.0724,-0.0707,0.0911,19.1813,-37.0125,-17.3063,217.5690,-15.4199,-2.3606,
4.477713,0.0862,0.3550,0.9452,0.9444,0.7534,0.0015,0.0724,-0.0707,0.0911,19.1813,-37.0125,-17.3063,217.5690,-15.4199,-2.3606,
4.483405,0.0862,0.3550,0.9452,0.9444,0.7534,0.0015,0.0724,-0.0707,0.0911,19.2563,-37.0500,-17.2500,217.5690,-15.4199,-2.3606,
4.492979,0.0862,0.3550,0.9452,0.9444,0.7534,0.0015,0.0648,-0.0594,0.0812,19.2563,-37.0500,-17.2500,217.5690,-15.4199,-2.3606,
4.496050,0.0862,0.3550,0.9452,0.9637,0.6703,0.0820,0.0648,-0.0594,0.0812,19.2563,-37.0500,-17.2500,217.5690,-15.4199,-2.3606,
4.497748,0.0862,0.3550,0.9452,0.9637,0.6703,0.0820,0.0648,-0.0594,0.0812,19.2563,-37.0500,-17.2500,217.3231,-15.6591,-1.9974,
4.546327,0.0862,0.3550,0.9452,0.9637,0.6703,0.0820,0.0648,-0.0594,0.0812,19.2750,-36.9938,-17.1188,217.3231,-15.6591,-1.9974,
4.551946,0.0698,0.3467,0.9471,0.9637,0.6703,0.0820,0.0648,-0.0594,0.0812,19.2750,-36.9938,-17.1188,217.3231,-15.6591,-1.9974,
4.554040,0.0606,0.3359,0.9770,0.9637,0.6703,0.0820,0.0648,-0.0594,0.0812,19.2750,-36.9938,-17.1188,217.3231,-15.6591,-1.9974,
4.556197,0.0500,0.3354,0.9608,0.9637,0.6703,0.0820,0.0648,-0.0594,0.0812,19.2750,-36.9938,-17.1188,217.3231,-15.6591,-1.9974,
4.558374,0.0711,0.3408,0.9566,0.9637,0.6703,0.0820,0.0648,-0.0594,0.0812,19.2750,-36.9938,-17.1188,217.3231,-15.6591,-1.9974,
4.560443,0.0835,0.3432,0.9503,0.9637,0.6703,0.0820,0.0648,-0.0594,0.0812,19.2750,-36.9938,-17.1188,217.3231,-15.6591,-1.9974,
4.562616,0.0835,0.3432,0.9503,0.9637,0.6703,0.0820,0.0648,-0.0594,0.0812,19.2750,-36.9938,-17.1188,217.0878,-15.8964,-1.6284,
4.564825,0.0835,0.3432,0.9503,1.1065,0.7073,-0.1195,0.0648,-0.0594,0.0812,19.2750,-36.9938,-17.1188,217.0878,-15.8964,-1.6284,
4.566996,0.0835,0.3432,0.9503,1.1065,0.7073,-0.1195,0.0577,-0.0507,0.0747,19.2750,-36.9938,-17.1188,217.0878,-15.8964,-1.6284,
4.615248,0.0835,0.3432,0.9503,1.1065,0.7073,-0.1195,0.0577,-0.0507,0.0747,19.2563,-36.9563,-17.1000,217.0878,-15.8964,-1.6284,
4.624876,0.0835,0.3432,0.9503,1.1065,0.7073,-0.1195,0.0520,-0.0457,0.0694,19.2563,-36.9563,-17.1000,217.0878,-15.8964,-1.6284,
4.627038,0.0835,0.3432,0.9503,0.8393,0.5809,-0.1241,0.0520,-0.0457,0.0694,19.2563,-36.9563,-17.1000,217.0878,-15.8964,-1.6284,
4.629222,0.0835,0.3432,0.9503,0.8393,0.5809,-0.1241,0.0520,-0.0457,0.0694,19.2563,-36.9563,-17.1000,216.8745,-16.1382,-1.2422,
4.649885,0.0642,0.3410,0.9508,0.8393,0.5809,-0.1241,0.0520,-0.0457,0.0694,19.2563,-36.9563,-17.1000,216.8745,-16.1382,-1.2422,
4.654774,0.0542,0.3379,0.9386,0.8393,0.5809,-0.1241,0.0520,-0.0457,0.0694,19.2563,-36.9563,-17.1000,216.8745,-16.1382,-1.2422,
4.659440,0.0649,0.3413,0.9371,0.8393,0.5809,-0.1241,0.0520,-0.0457,0.0694,19.2563,-36.9563,-17.1000,216.8745,-16.1382,-1.2422,
4.665586,0.0628,0.3362,0.9508,0.8393,0.5809,-0.1241,0.0520,-0.0457,0.0694,19.2563,-36.9563,-17.1000,216.8745,-16.1382,-1.2422,
4.668313,0.0647,0.3388,0.9483,0.8393,0.5809,-0.1241,0.0520,-0.0457,0.0694,19.2563,-36.9563,-17.1000,216.8745,-16.1382,-1.2422,
4.684926,0.0647,0.3388,0.9483,0.8393,0.5809,-0.1241,0.0520,-0.0457,0.0694,19.2563,-36.9375,-17.0438,216.8745,-16.1382,-1.2422,
4.690778,0.0647,0.3388,0.9483,0.8393,0.5809,-0.1241,0.0478,-0.0437,0.0635,19.2563,-36.9375,-17.0438,216.8745,-16.1382,-1.2422,
4.693304,0.0647,0.3388,0.9483,0.7611,0.6528,-0.1142,0.0478,-0.0437,0.0635,19.2563,-36.9375,-17.0438,216.8745,-16.1382,-1.2422,
4.695320,0.0647,0.3388,0.9483,0.7611,0.6528,-0.1142,0.0478,-0.0437,0.0635,19.2563,-36.9375,-17.0438,216.6503,-16.3684,-0.8695,
4.748322,0.0649,0.3506,0.9469,0.7611,0.6528,-0.1142,0.0478,-0.0437,0.0635,19.2563,-36.9375,-17.0438,216.6503,-16.3684,-0.8695,
4.750368,0.0608,0.3496,0.9479,0.7611,0.6528,-0.1142,0.0478,-0.0437,0.0635,19.2563,-36.9375,-17.0438,216.6503,-16.3684,-0.8695,
4.752384,0.0757,0.3523,0.9591,0.7611,0.6528,-0.1142,0.0478,-0.0437,0.0635,19.2563,-36.9375,-17.0438,216.6503,-16.3684,-0.8695,
4.754563,0.0772,0.3513,0.9657,0.7611,0.6528,-0.1142,0.0478,-0.0437,0.0635,19.2563,-36.9375,-17.0438,216.6503,-16.3684,-0.8695,
4.756671,0.0762,0.3479,0.9530,0.7611,0.6528,-0.1142,0.0478,-0.0437,0.0635,19.2563,-36.9375,-17.0438,216.6503,-16.3684,-0.8695,
4.758878,0.0762,0.3479,0.9530,0.7611,0.6528,-0.1142,0.0478,-0.0437,0.0635,19.2188,-36.9188,-17.0250,216.6503,-16.3684,-0.8695,
4.761014,0.0762,0.3479,0.9530,0.6968,0.6138,-0.1034,0.0478,-0.0437,0.0635,19.2188,-36.9188,-17.0250,216.6503,-16.3684,-0.8695,
4.763188,0.0762,0.3479,0.9530,0.6968,0.6138,-0.1034,0.0478,-0.0437,0.0635,19.2188,-36.9188,-17.0250,216.4312,-16.6050,-0.4935,
4.765492,0.0762,0.3479,0.9530,0.6968,0.6138,-0.1034,0.0456,-0.0426,0.0568,19.2188,-36.9188,-17.0250,216.4312,-16.6050,-0.4935,
4.824180,0.0762,0.3479,0.9530,0.6968,0.6138,-0.1034,0.0448,-0.0413,0.0508,19.2188,-36.9188,-17.0250,216.4312,-16.6050,-0.4935,
4.827085,0.0762,0.3479,0.9530,0.6968,0.6138,-0.1034,0.0448,-0.0413,0.0508,19.2188,-36.9188,-17.0250,216.2336,-16.8568,-0.1047,
4.828462,0.0762,0.3479,0.9530,0.6968,0.6138,-0.1034,0.0448,-0.0413,0.0508,19.1625,-36.9188,-17.0625,216.2336,-16.8568,-0.1047,
4.829779,0.0762,0.3479,0.9530,0.5871,0.4910,-0.4122,0.0448,-0.0413,0.0508,19.1625,-36.9188,-17.0625,216.2336,-16.8568,-0.1047,
4.848692,0.0603,0.3405,0.9256,0.5871,0.4910,-0.4122,0.0448,-0.0413,0.0508,19.1625,-36.9188,-17.0625,216.2336,-16.8568,-0.1047,
4.850569,0.0798,0.3523,0.9804,0.5871,0.4910,-0.4122,0.0448,-0.0413,0.0508,19.1625,-36.9188,-17.0625,216.2336,-16.8568,-0.1047,
4.851779,0.0610,0.3508,0.9593,0.5871,0.4910,-0.4122,0.0448,-0.0413,0.0508,19.1625,-36.9188,-17.0625,216.2336,-16.8568,-0.1047,
4.852855,0.0711,0.3532,0.9598,0.5871,0.4910,-0.4122,0.0448,-0.0413,0.0508,19.1625,-36.9188,-17.0625,216.2336,-16.8568,-0.1047,
4.853798,0.0933,0.3576,0.9444,0.5871,0.4910,-0.4122,0.0448,-0.0413,0.0508,19.1625,-36.9188,-17.0625,216.2336,-16.8568,-0.1047,
4.890111,0.0933,0.3576,0.9444,0.5871,0.4910,-0.4122,0.0441,-0.0405,0.0448,19.1625,-36.9188,-17.0625,216.2336,-16.8568,-0.1047,
4.892986,0.0933,0.3576,0.9444,0.5871,0.4910,-0.4122,0.0441,-0.0405,0.0448,19.1625,-36.9188,-17.0625,216.0477,-17.1151,0.2829,
4.894949,0.0933,0.3576,0.9444,0.6357,0.5541,0.0222,0.0441,-0.0405,0.0448,19.1625,-36.9188,-17.0625,216.0477,-17.1151,0.2829,
4.896041,0.0933,0.3576,0.9444,0.6357,0.5541,0.0222,0.0441,-0.0405,0.0448,19.1813,-36.9188,-17.0063,216.0477,-17.1151,0.2829,
4.945176,0.0918,0.3584,0.9432,0.6357,0.5541,0.0222,0.0441,-0.0405,0.0448,19.1813,-36.9188,-17.0063,216.0477,-17.1151,0.2829,
4.948255,0.0681,0.3479,0.9251,0.6357,0.5541,0.0222,0.0441,-0.0405,0.0448,19.1813,-36.9188,-17.0063,216.0477,-17.1151,0.2829,
4.950752,0.0772,0.3484,0.9437,0.6357,0.5541,0.0222,0.0441,-0.0405,0.0448,19.1813,-36.9188,-17.0063,216.0477,-17.1151,0.2829,
4.952069,0.0820,0.3557,0.9415,0.6357,0.5541,0.0222,0.0441,-0.0405,0.0448,19.1813,-36.9188,-17.0063,216.0477,-17.1151,0.2829,
4.953188,0.0540,0.3454,0.9122,0.6357,0.5541,0.0222,0.0441,-0.0405,0.0448,19.1813,-36.9188,-17.0063,216.0477,-17.1151,0.2829,
4.957376,0.0540,0.3454,0.9122,0.6357,0.5541,0.0222,0.0429,-0.0412,0.0368,19.1813,-36.9188,-17.0063,216.0477,-17.1151,0.2829,
4.958690,0.0540,0.3454,0.9122,0.5782,0.4535,-0.1697,0.0429,-0.0412,0.0368,19.1813,-36.9188,-17.0063,216.0477,-17.1151,0.2829,
4.959706,0.0540,0.3454,0.9122,0.5782,0.4535,-0.1697,0.0429,-0.0412,0.0368,19.1813,-36.9188,-17.0063,215.8731,-17.3802,0.6752,
4.964380,0.0540,0.3454,0.9122,0.5782,0.4535,-0.1697,0.0429,-0.0412,0.0368,19.1438,-36.7875,-17.0438,215.8731,-17.3802,0.6752,
5.024746,0.0540,0.3454,0.9122,0.5782,0.4535,-0.1697,0.0429,-0.0412,0.0368,19.1438,-36.7875,-17.0438,215.6869,-17.6375,1.0452,
5.027640,0.0540,0.3454,0.9122,0.8021,0.5028,-0.0263,0.0429,-0.0412,0.0368,19.1438,-36.7875,-17.0438,215.6869,-17.6375,1.0452,
5.029435,0.0540,0.3454,0.9122,0.8021,0.5028,-0.0263,0.0416,-0.0424,0.0269,19.1438,-36.7875,-17.0438,215.6869,-17.6375,1.0452,
5.034282,0.0540,0.3454,0.9122,0.8021,0.5028,-0.0263,0.0416,-0.0424,0.0269,19.2375,-36.7500,-17.1188,215.6869,-17.6375,1.0452,
5.043808,0.0950,0.3528,0.9400,0.8021,0.5028,-0.0263,0.0416,-0.0424,0.0269,19.2375,-36.7500,-17.1188,215.6869,-17.6375,1.0452,
5.045433,0.0984,0.3547,0.9814,0.8021,0.5028,-0.0263,0.0416,-0.0424,0.0269,19.2375,-36.7500,-17.1188,215.6869,-17.6375,1.0452,
5.046894,0.0806,0.3374,1.0033,0.8021,0.5028,-0.0263,0.0416,-0.0424,0.0269,19.2375,-36.7500,-17.1188,215.6869,-17.6375,1.0452,
5.047874,0.0302,0.3205,0.9298,0.8021,0.5028,-0.0263,0.0416,-0.0424,0.0269,19.2375,-36.7500,-17.1188,215.6869,-17.6375,1.0452,
5.048857,0.0361,0.3195,0.8958,0.8021,0.5028,-0.0263,0.0416,-0.0424,0.0269,19.2375,-36.7500,-17.1188,215.6869,-17.6375,1.0452,
5.091977,0.0361,0.3195,0.8958,-0.0175,0.1135,-0.6874,0.0416,-0.0424,0.0269,19.2375,-36.7500,-17.1188,215.6869,-17.6375,1.0452,
5.094916,0.0361,0.3195,0.8958,-0.0175,0.1135,-0.6874,0.0387,-0.0394,0.0179,19.2375,-36.7500,-17.1188,215.6869,-17.6375,1.0452,
5.096065,0.0361,0.3195,0.8958,-0.0175,0.1135,-0.6874,0.0387,-0.0394,0.0179,19.2375,-36.7500,-17.1188,215.4960,-17.8832,1.3857,
5.105733,0.0361,0.3195,0.8958,-0.0175,0.1135,-0.6874,0.0387,-0.0394,0.0179,19.3313,-36.6188,-17.2688,215.4960,-17.8832,1.3857,
5.141815,0.0662,0.3178,0.9544,-0.0175,0.1135,-0.6874,0.0387,-0.0394,0.0179,19.3313,-36.6188,-17.2688,215.4960,-17.8832,1.3857,
5.144067,0.0417,0.3065,0.9745,-0.0175,0.1135,-0.6874,0.0387,-0.0394,0.0179,19.3313,-36.6188,-17.2688,215.4960,-17.8832,1.3857,
5.145283,-0.0018,0.2907,1.0011,-0.0175,0.1135,-0.6874,0.0387,-0.0394,0.0179,19.3313,-36.6188,-17.2688,215.4960,-17.8832,1.3857,
5.146625,-0.0145,0.2836,1.0055,-0.0175,0.1135,-0.6874,0.0387,-0.0394,0.0179,19.3313,-36.6188,-17.2688,215.4960,-17.8832,1.3857,
5.147667,-0.0025,0.2965,0.9997,-0.0175,0.1135,-0.6874,0.0387,-0.0394,0.0179,19.3313,-36.6188,-17.2688,215.4960,-17.8832,1.3857,
5.157048,-0.0025,0.2965,0.9997,-0.0175,0.1135,-0.6874,0.0299,-0.0275,0.0137,19.3313,-36.6188,-17.2688,215.4960,-17.8832,1.3857,
5.158642,-0.0025,0.2965,0.9997,-0.3963,-0.2589,0.5568,0.0299,-0.0275,0.0137,19.3313,-36.6188,-17.2688,215.4960,-17.8832,1.3857,
5.159628,-0.0025,0.2965,0.9997,-0.3963,-0.2589,0.5568,0.0299,-0.0275,0.0137,19.3313,-36.6188,-17.2688,215.4960,-17.8832,1.3857,
5.174933,-0.0025,0.2965,0.9997,-0.3963,-0.2589,0.5568,0.0299,-0.0275,0.0137,19.5938,-36.3938,-17.4188,215.4960,-17.8832,1.3857,
5.224506,-0.0025,0.2965,0.9997,-0.3963,-0.2589,0.5568,0.0127,-0.0069,0.0131,19.5938,-36.3938,-17.4188,215.4960,-17.8832,1.3857,
5.227239,-0.0025,0.2965,0.9997,-2.3762,-1.2119,0.3570,0.0127,-0.0069,0.0131,19.5938,-36.3938,-17.4188,215.4960,-17.8832,1.3857,
5.229030,-0.0025,0.2965,0.9997,-2.3762,-1.2119,0.3570,0.0127,-0.0069,0.0131,19.5938,-36.3938,-17.4188,215.1520,-18.2947,1.9337,
5.239843,-0.0577,0.2680,1.0048,-2.3762,-1.2119,0.3570,0.0127,-0.0069,0.0131,19.5938,-36.3938,-17.4188,215.1520,-18.2947,1.9337,
5.241639,-0.1503,0.2321,0.9694,-2.3762,-1.2119,0.3570,0.0127,-0.0069,0.0131,19.5938,-36.3938,-17.4188,215.1520,-18.2947,1.9337,
5.242616,0.0522,0.3290,0.9124,-2.3762,-1.2119,0.3570,0.0127,-0.0069,0.0131,19.5938,-36.3938,-17.4188,215.1520,-18.2947,1.9337,
5.243586,0.0388,0.3022,1.0187,-2.3762,-1.2119,0.3570,0.0127,-0.0069,0.0131,19.5938,-36.3938,-17.4188,215.1520,-18.2947,1.9337,
5.244524,-0.0435,0.2650,0.9210,-2.3762,-1.2119,0.3570,0.0127,-0.0069,0.0131,19.5938,-36.3938,-17.4188,215.1520,-18.2947,1.9337,
5.245538,-0.0435,0.2650,0.9210,-2.3762,-1.2119,0.3570,0.0127,-0.0069,0.0131,19.8938,-36.1500,-17.5500,215.1520,-18.2947,1.9337,
5.291018,-0.0435,0.2650,0.9210,-2.3762,-1.2119,0.3570,0.0127,-0.0069,0.0131,19.8938,-36.1500,-17.5500,215.1520,-18.2947,1.9337,
5.292843,-0.0435,0.2650,0.9210,-0.7510,-0.4914,-0.5301,0.0127,-0.0069,0.0131,19.8938,-36.1500,-17.5500,215.1520,-18.2947,1.9337,
5.294060,-0.0435,0.2650,0.9210,-0.7510,-0.4914,-0.5301,-0.0094,0.0162,0.0102,19.8938,-36.1500,-17.5500,215.1520,-18.2947,1.9337,
5.315487,-0.0435,0.2650,0.9210,-0.7510,-0.4914,-0.5301,-0.0094,0.0162,0.0102,20.2313,-35.8500,-17.7188,215.1520,-18.2947,1.9337,
5.339100,-0.0035,0.2763,0.9432,-0.7510,-0.4914,-0.5301,-0.0094,0.0162,0.0102,20.2313,-35.8500,-17.7188,215.1520,-18.2947,1.9337,
5.341235,-0.0284,0.2787,0.9840,-0.7510,-0.4914,-0.5301,-0.0094,0.0162,0.0102,20.2313,-35.8500,-17.7188,215.1520,-18.2947,1.9337,
5.342720,-0.0636,0.2663,0.9865,-0.7510,-0.4914,-0.5301,-0.0094,0.0162,0.0102,20.2313,-35.8500,-17.7188,215.1520,-18.2947,1.9337,
5.343681,-0.1068,0.2643,0.9405,-0.7510,-0.4914,-0.5301,-0.0094,0.0162,0.0102,20.2313,-35.8500,-17.7188,215.1520,-18.2947,1.9337,
5.344634,-0.0228,0.2780,0.9176,-0.7510,-0.4914,-0.5301,-0.0094,0.0162,0.0102,20.2313,-35.8500,-17.7188,215.1520,-18.2947,1.9337,
5.357821,-0.0228,0.2780,0.9176,-1.4963,-0.5631,0.1459,-0.0094,0.0162,0.0102,20.2313,-35.8500,-17.7188,215.1520,-18.2947,1.9337,
5.359523,-0.0228,0.2780,0.9176,-1.4963,-0.5631,0.1459,-0.0094,0.0162,0.0102,20.2313,-35.8500,-17.7188,215.1520,-18.2947,1.9337,
5.360449,-0.0228,0.2780,0.9176,-1.4963,-0.5631,0.1459,-0.0292,0.0340,0.0012,20.2313,-35.8500,-17.7188,215.1520,-18.2947,1.9337,
5.387217,-0.0228,0.2780,0.9176,-1.4963,-0.5631,0.1459,-0.0292,0.0340,0.0012,20.5312,-35.6250,-17.8313,215.1520,-18.2947,1.9337,
5.425731,-0.0228,0.2780,0.9176,-1.4963,-0.5631,0.1459,-0.0431,0.0456,-0.0100,20.5312,-35.6250,-17.8313,215.1520,-18.2947,1.9337,
5.429022,-0.0228,0.2780,0.9176,-0.4590,-0.3078,0.6425,-0.0431,0.0456,-0.0100,20.5312,-35.6250,-17.8313,215.1520,-18.2947,1.9337,
5.430974,-0.0228,0.2780,0.9176,-0.4590,-0.3078,0.6425,-0.0431,0.0456,-0.0100,20.5312,-35.6250,-17.8313,214.7302,-18.5713,2.3429,
5.439044,0.0183,0.2953,0.9850,-0.4590,-0.3078,0.6425,-0.0431,0.0456,-0.0100,20.5312,-35.6250,-17.8313,214.7302,-18.5713,2.3429,
5.441058,0.0014,0.2961,1.0182,-0.4590,-0.3078,0.6425,-0.0431,0.0456,-0.0100,20.5312,-35.6250,-17.8313,214.7302,-18.5713,2.3429,
5.441994,-0.0316,0.2689,1.0009,-0.4590,-0.3078,0.6425,-0.0431,0.0456,-0.0100,20.5312,-35.6250,-17.8313,214.7302,-18.5713,2.3429,
5.443019,-0.0425,0.2648,0.9838,-0.4590,-0.3078,0.6425,-0.0431,0.0456,-0.0100,20.5312,-35.6250,-17.8313,214.7302,-18.5713,2.3429,
5.443964,-0.0281,0.2819,0.9654,-0.4590,-0.3078,0.6425,-0.0431,0.0456,-0.0100,20.5312,-35.6250,-17.8313,214.7302,-18.5713,2.3429,
5.455752,-0.0281,0.2819,0.9654,-0.4590,-0.3078,0.6425,-0.0431,0.0456,-0.0100,20.7375,-35.4188,-17.9438,214.7302,-18.5713,2.3429,
5.492673,-0.0281,0.2819,0.9654,-0.4590,-0.3078,0.6425,-0.0516,0.0539,-0.0169,20.7375,-35.4188,-17.9438,214.7302,-18.5713,2.3429,
5.495798,-0.0281,0.2819,0.9654,-0.6893,-0.2785,0.2182,-0.0516,0.0539,-0.0169,20.7375,-35.4188,-17.9438,214.7302,-18.5713,2.3429,
5.497152,-0.0281,0.2819,0.9654,-0.6893,-0.2785,0.2182,-0.0516,0.0539,-0.0169,20.7375,-35.4188,-17.9438,214.7302,-18.5713,2.3429,
5.527180,-0.0281,0.2819,0.9654,-0.6893,-0.2785,0.2182,-0.0516,0.0539,-0.0169,21.0188,-35.2875,-18.0188,214.7302,-18.5713,2.3429,
5.536354,-0.0259,0.2895,0.9632,-0.6893,-0.2785,0.2182,-0.0516,0.0539,-0.0169,21.0188,-35.2875,-18.0188,214.7302,-18.5713,2.3429,
5.538533,-0.0123,0.2804,0.9374,-0.6893,-0.2785,0.2182,-0.0516,0.0539,-0.0169,21.0188,-35.2875,-18.0188,214.7302,-18.5713,2.3429,
5.539784,-0.0093,0.2714,0.9452,-0.6893,-0.2785,0.2182,-0.0516,0.0539,-0.0169,21.0188,-35.2875,-18.0188,214.7302,-18.5713,2.3429,
5.540962,-0.0132,0.2672,0.9772,-0.6893,-0.2785,0.2182,-0.0516,0.0539,-0.0169,21.0188,-35.2875,-18.0188,214.7302,-18.5713,2.3429,
5.541977,0.0645,0.2716,1.0813,-0.6893,-0.2785,0.2182,-0.0516,0.0539,-0.0169,21.0188,-35.2875,-18.0188,214.7302,-18.5713,2.3429,
5.558383,0.0645,0.2716,1.0813,-0.6893,-0.2785,0.2182,-0.0563,0.0580,-0.0181,21.0188,-35.2875,-18.0188,214.7302,-18.5713,2.3429,
5.560277,0.0645,0.2716,1.0813,-0.4494,-0.5353,0.3423,-0.0563,0.0580,-0.0181,21.0188,-35.2875,-18.0188,214.7302,-18.5713,2.3429,
5.561265,0.0645,0.2716,1.0813,-0.4494,-0.5353,0.3423,-0.0563,0.0580,-0.0181,21.0188,-35.2875,-18.0188,214.7302,-18.5713,2.3429,
5.596321,0.0645,0.2716,1.0813,-0.4494,-0.5353,0.3423,-0.0563,0.0580,-0.0181,21.2063,-35.1375,-18.0563,214.7302,-18.5713,2.3429,
5.625970,0.0645,0.2716,1.0813,-0.4494,-0.5353,0.3423,-0.0580,0.0559,-0.0168,21.2063,-35.1375,-18.0563,214.7302,-18.5713,2.3429,
5.629346,0.0645,0.2716,1.0813,-0.4494,-0.5353,0.3423,-0.0580,0.0559,-0.0168,21.2063,-35.1375,-18.0563,214.7302,-18.5713,2.3429,
5.631020,0.0645,0.2716,1.0813,-0.9059,-0.6614,0.4036,-0.0580,0.0559,-0.0168,21.2063,-35.1375,-18.0563,214.7302,-18.5713,2.3429,
5.634357,0.0295,0.2616,1.0553,-0.9059,-0.6614,0.4036,-0.0580,0.0559,-0.0168,21.2063,-35.1375,-18.0563,214.7302,-18.5713,2.3429,
5.636292,-0.0479,0.2553,1.0368,-0.9059,-0.6614,0.4036,-0.0580,0.0559,-0.0168,21.2063,-35.1375,-18.0563,214.7302,-18.5713,2.3429,
5.637431,-0.0489,0.2560,0.9826,-0.9059,-0.6614,0.4036,-0.0580,0.0559,-0.0168,21.2063,-35.1375,-18.0563,214.7302,-18.5713,2.3429,
5.638562,-0.0328,0.2653,0.9500,-0.9059,-0.6614,0.4036,-0.0580,0.0559,-0.0168,21.2063,-35.1375,-18.0563,214.7302,-18.5713,2.3429,
5.639491,-0.0255,0.2733,0.9588,-0.9059,-0.6614,0.4036,-0.0580,0.0559,-0.0168,21.2063,-35.1375,-18.0563,214.7302,-18.5713,2.3429,
5.665122,-0.0255,0.2733,0.9588,-0.9059,-0.6614,0.4036,-0.0580,0.0559,-0.0168,21.3750,-34.9688,-18.1313,214.7302,-18.5713,2.3429,
5.690531,-0.0255,0.2733,0.9588,-0.7668,-0.7766,-0.0020,-0.0580,0.0559,-0.0168,21.3750,-34.9688,-18.1313,214.7302,-18.5713,2.3429,
5.692731,-0.0255,0.2733,0.9588,-0.7668,-0.7766,-0.0020,-0.0580,0.0559,-0.0168,21.3750,-34.9688,-18.1313,214.7302,-18.5713,2.3429,
5.693961,-0.0255,0.2733,0.9588,-0.7668,-0.7766,-0.0020,-0.0576,0.0493,-0.0146,21.3750,-34.9688,-18.1313,214.7302,-18.5713,2.3429,
5.732267,-0.0264,0.2379,0.9122,-0.7668,-0.7766,-0.0020,-0.0576,0.0493,-0.0146,21.3750,-34.9688,-18.1313,214.7302,-18.5713,2.3429,
5.735404,-0.0494,0.2186,0.9671,-0.7668,-0.7766,-0.0020,-0.0576,0.0493,-0.0146,21.3750,-34.9688,-18.1313,214.7302,-18.5713,2.3429,
5.736721,-0.0800,0.2047,0.9960,-0.7668,-0.7766,-0.0020,-0.0576,0.0493,-0.0146,21.3750,-34.9688,-18.1313,214.7302,-18.5713,2.3429,
5.737980,-0.1051,0.2345,0.9789,-0.7668,-0.7766,-0.0020,-0.0576,0.0493,-0.0146,21.3750,-34.9688,-18.1313,214.7302,-18.5713,2.3429,
5.739165,-0.0722,0.2438,0.9948,-0.7668,-0.7766,-0.0020,-0.0576,0.0493,-0.0146,21.3750,-34.9688,-18.1313,214.7302,-18.5713,2.3429,
5.740150,-0.0722,0.2438,0.9948,-0.7668,-0.7766,-0.0020,-0.0576,0.0493,-0.0146,21.4875,-34.9688,-18.0375,214.7302,-18.5713,2.3429,
5.757202,-0.0722,0.2438,0.9948,-1.1239,-0.7203,0.3905,-0.0576,0.0493,-0.0146,21.4875,-34.9688,-18.0375,214.7302,-18.5713,2.3429,
5.759386,-0.0722,0.2438,0.9948,-1.1239,-0.7203,0.3905,-0.0573,0.0473,-0.0095,21.4875,-34.9688,-18.0375,214.7302,-18.5713,2.3429,
5.760401,-0.0722,0.2438,0.9948,-1.1239,-0.7203,0.3905,-0.0573,0.0473,-0.0095,21.4875,-34.9688,-18.0375,214.7302,-18.5713,2.3429,
5.805796,-0.0722,0.2438,0.9948,-1.1239,-0.7203,0.3905,-0.0573,0.0473,-0.0095,21.5250,-34.8938,-18.0563,214.7302,-18.5713,2.3429,
5.826415,-0.0722,0.2438,0.9948,-1.1239,-0.7203,0.3905,-0.0589,0.0577,0.0004,21.5250,-34.8938,-18.0563,214.7302,-18.5713,2.3429,
5.838692,-0.0722,0.2438,0.9948,-1.1239,-0.7203,0.3905,-0.0589,0.0577,0.0004,21.5250,-34.8938,-18.0563,214.7302,-18.5713,2.3429,
5.847069,-0.0722,0.2438,0.9948,-1.0385,-0.5354,0.5227,-0.0589,0.0577,0.0004,21.5250,-34.8938,-18.0563,214.7302,-18.5713,2.3429,
5.854592,-0.0702,0.2494,1.0050,-1.0385,-0.5354,0.5227,-0.0589,0.0577,0.0004,21.5250,-34.8938,-18.0563,214.7302,-18.5713,2.3429,
5.859237,-0.0582,0.2646,1.0080,-1.0385,-0.5354,0.5227,-0.0589,0.0577,0.0004,21.5250,-34.8938,-18.0563,214.7302,-18.5713,2.3429,
5.867065,-0.0660,0.2633,1.0063,-1.0385,-0.5354,0.5227,-0.0589,0.0577,0.0004,21.5250,-34.8938,-18.0563,214.7302,-18.5713,2.3429,
5.872867,-0.0805,0.2533,0.9899,-1.0385,-0.5354,0.5227,-0.0589,0.0577,0.0004,21.5250,-34.8938,-18.0563,214.7302,-18.5713,2.3429,
5.874775,-0.0726,0.2494,0.9914,-1.0385,-0.5354,0.5227,-0.0589,0.0577,0.0004,21.5250,-34.8938,-18.0563,214.7302,-18.5713,2.3429,
5.876431,-0.0726,0.2494,0.9914,-1.0385,-0.5354,0.5227,-0.0589,0.0577,0.0004,21.5250,-34.9875,-17.9813,214.7302,-18.5713,2.3429,
5.892173,-0.0726,0.2494,0.9914,-1.0385,-0.5354,0.5227,-0.0620,0.0775,0.0133,21.5250,-34.9875,-17.9813,214.7302,-18.5713,2.3429,
5.896033,-0.0726,0.2494,0.9914,-0.9211,-0.5257,0.1735,-0.0620,0.0775,0.0133,21.5250,-34.9875,-17.9813,214.7302,-18.5713,2.3429,
5.898319,-0.0726,0.2494,0.9914,-0.9211,-0.5257,0.1735,-0.0620,0.0775,0.0133,21.5250,-34.9875,-17.9813,214.1112,-18.1689,2.0216,
5.928106,-0.0501,0.2594,0.9916,-0.9211,-0.5257,0.1735,-0.0620,0.0775,0.0133,21.5250,-34.9875,-17.9813,214.1112,-18.1689,2.0216,
5.938104,-0.0597,0.2587,0.9654,-0.9211,-0.5257,0.1735,-0.0620,0.0775,0.0133,21.5250,-34.9875,-17.9813,214.1112,-18.1689,2.0216,
5.948452,-0.0856,0.2301,0.9508,-0.9211,-0.5257,0.1735,-0.0620,0.0775,0.0133,21.5250,-34.9875,-17.9813,214.1112,-18.1689,2.0216,
5.953930,-0.0462,0.2555,0.9862,-0.9211,-0.5257,0.1735,-0.0620,0.0775,0.0133,21.5250,-34.9875,-17.9813,214.1112,-18.1689,2.0216,
5.958463,-0.1222,0.2000,0.9105,-0.9211,-0.5257,0.1735,-0.0620,0.0775,0.0133,21.5250,-34.9875,-17.9813,214.1112,-18.1689,2.0216,
5.962161,-0.1222,0.2000,0.9105,-0.9211,-0.5257,0.1735,-0.0620,0.0775,0.0133,21.6188,-34.9500,-18.0938,214.1112,-18.1689,2.0216,
5.967486,-0.1222,0.2000,0.9105,-0.9211,-0.5257,0.1735,-0.0656,0.0979,0.0246,21.6188,-34.9500,-18.0938,214.1112,-18.1689,2.0216,
5.972256,-0.1222,0.2000,0.9105,-1.8176,-1.1398,-0.5167,-0.0656,0.0979,0.0246,21.6188,-34.9500,-18.0938,214.1112,-18.1689,2.0216,
5.974387,-0.1222,0.2000,0.9105,-1.8176,-1.1398,-0.5167,-0.0656,0.0979,0.0246,21.6188,-34.9500,-18.0938,214.1112,-18.1689,2.0216,
6.018165,-0.1222,0.2000,0.9105,-1.8176,-1.1398,-0.5167,-0.0656,0.0979,0.0246,21.6375,-34.9125,-18.2438,214.1112,-18.1689,2.0216,
6.031900,-0.1222,0.2000,0.9105,-1.8176,-1.1398,-0.5167,-0.0693,0.1111,0.0312,21.6375,-34.9125,-18.2438,214.1112,-18.1689,2.0216,
6.039322,-0.1222,0.2000,0.9105,-1.8176,-1.1398,-0.5167,-0.0693,0.1111,0.0312,21.6375,-34.9125,-18.2438,213.8864,-17.8028,1.5539,
6.051205,-0.1222,0.2000,0.9105,-1.2434,-1.0032,-0.1977,-0.0693,0.1111,0.0312,21.6375,-34.9125,-18.2438,213.8864,-17.8028,1.5539,
6.058812,-0.1083,0.2140,0.9242,-1.2434,-1.0032,-0.1977,-0.0693,0.1111,0.0312,21.6375,-34.9125,-18.2438,213.8864,-17.8028,1.5539,
6.063450,-0.0528,0.2196,0.9945,-1.2434,-1.0032,-0.1977,-0.0693,0.1111,0.0312,21.6375,-34.9125,-18.2438,213.8864,-17.8028,1.5539,
6.067091,-0.0617,0.2137,0.9945,-1.2434,-1.0032,-0.1977,-0.0693,0.1111,0.0312,21.6375,-34.9125,-18.2438,213.8864,-17.8028,1.5539,
6.072595,-0.1017,0.2035,0.9159,-1.2434,-1.0032,-0.1977,-0.0693,0.1111,0.0312,21.6375,-34.9125,-18.2438,213.8864,-17.8028,1.5539,
6.074604,-0.0836,0.2154,0.8988,-1.2434,-1.0032,-0.1977,-0.0693,0.1111,0.0312,21.6375,-34.9125,-18.2438,213.8864,-17.8028,1.5539,
6.086318,-0.0836,0.2154,0.8988,-1.2434,-1.0032,-0.1977,-0.0693,0.1111,0.0312,21.6000,-34.9125,-18.4500,213.8864,-17.8028,1.5539,
6.091756,-0.0836,0.2154,0.8988,-1.2434,-1.0032,-0.1977,-0.0735,0.1149,0.0333,21.6000,-34.9125,-18.4500,213.8864,-17.8028,1.5539,
6.096269,-0.0836,0.2154,0.8988,-0.5562,-0.7932,0.2359,-0.0735,0.1149,0.0333,21.6000,-34.9125,-18.4500,213.8864,-17.8028,1.5539,
6.102716,-0.0836,0.2154,0.8988,-0.5562,-0.7932,0.2359,-0.0735,0.1149,0.0333,21.6000,-34.9125,-18.4500,213.8864,-17.8028,1.5539,
6.125266,-0.0474,0.2242,0.9525,-0.5562,-0.7932,0.2359,-0.0735,0.1149,0.0333,21.6000,-34.9125,-18.4500,213.8864,-17.8028,1.5539,
6.128011,-0.0357,0.2242,0.9819,-0.5562,-0.7932,0.2359,-0.0735,0.1149,0.0333,21.6000,-34.9125,-18.4500,213.8864,-17.8028,1.5539,
6.129685,-0.0425,0.2252,0.9843,-0.5562,-0.7932,0.2359,-0.0735,0.1149,0.0333,21.6000,-34.9125,-18.4500,213.8864,-17.8028,1.5539,
6.131776,-0.0174,0.2348,0.9987,-0.5562,-0.7932,0.2359,-0.0735,0.1149,0.0333,21.6000,-34.9125,-18.4500,213.8864,-17.8028,1.5539,
6.133899,0.0336,0.2489,1.0021,-0.5562,-0.7932,0.2359,-0.0735,0.1149,0.0333,21.6000,-34.9125,-18.4500,213.8864,-17.8028,1.5539,
6.156026,0.0336,0.2489,1.0021,-0.5562,-0.7932,0.2359,-0.0735,0.1149,0.0333,21.2625,-34.8750,-18.6562,213.8864,-17.8028,1.5539,
6.163653,0.0336,0.2489,1.0021,-0.5562,-0.7932,0.2359,-0.0769,0.1086,0.0348,21.2625,-34.8750,-18.6562,213.8864,-17.8028,1.5539,
6.172770,0.0336,0.2489,1.0021,0.5646,-0.3290,0.7130,-0.0769,0.1086,0.0348,21.2625,-34.8750,-18.6562,213.8864,-17.8028,1.5539,
6.178168,0.0336,0.2489,1.0021,0.5646,-0.3290,0.7130,-0.0769,0.1086,0.0348,21.2625,-34.8750,-18.6562,213.6666,-17.3940,1.0622,
6.222522,0.0911,0.2719,1.0475,0.5646,-0.3290,0.7130,-0.0769,0.1086,0.0348,21.2625,-34.8750,-18.6562,213.6666,-17.3940,1.0622,
6.224989,0.1377,0.2939,1.0566,0.5646,-0.3290,0.7130,-0.0769,0.1086,0.0348,21.2625,-34.8750,-18.6562,213.6666,-17.3940,1.0622,
6.226390,0.1580,0.3102,1.0070,0.5646,-0.3290,0.7130,-0.0769,0.1086,0.0348,21.2625,-34.8750,-18.6562,213.6666,-17.3940,1.0622,
6.227684,0.1712,0.3222,0.9391,0.5646,-0.3290,0.7130,-0.0769,0.1086,0.0348,21.2625,-34.8750,-18.6562,213.6666,-17.3940,1.0622,
6.228980,0.2814,0.3603,1.0251,0.5646,-0.3290,0.7130,-0.0769,0.1086,0.0348,21.2625,-34.8750,-18.6562,213.6666,-17.3940,1.0622,
6.230437,0.2814,0.3603,1.0251,0.5646,-0.3290,0.7130,-0.0739,0.0823,0.0376,21.2625,-34.8750,-18.6562,213.6666,-17.3940,1.0622,
6.232538,0.2814,0.3603,1.0251,0.5646,-0.3290,0.7130,-0.0739,0.0823,0.0376,21.2625,-34.8750,-18.6562,213.6666,-17.3940,1.0622,
6.234555,0.2814,0.3603,1.0251,1.6812,0.3458,-0.0383,-0.0739,0.0823,0.0376,21.2625,-34.8750,-18.6562,213.6666,-17.3940,1.0622,
6.236675,0.2814,0.3603,1.0251,1.6812,0.3458,-0.0383,-0.0739,0.0823,0.0376,20.6438,-35.1750,-18.8625,213.6666,-17.3940,1.0622,
6.292112,0.2814,0.3603,1.0251,1.6812,0.3458,-0.0383,-0.0554,0.0149,0.0354,20.6438,-35.1750,-18.8625,213.6666,-17.3940,1.0622,
6.295506,0.2814,0.3603,1.0251,1.6812,0.3458,-0.0383,-0.0554,0.0149,0.0354,20.6438,-35.1750,-18.8625,213.6666,-17.3940,1.0622,
6.297547,0.2814,0.3603,1.0251,3.3451,1.2863,-0.6896,-0.0554,0.0149,0.0354,20.6438,-35.1750,-18.8625,213.6666,-17.3940,1.0622,
6.299870,0.2814,0.3603,1.0251,3.3451,1.2863,-0.6896,-0.0554,0.0149,0.0354,19.7063,-35.4938,-19.0312,213.6666,-17.3940,1.0622,
6.320441,0.2494,0.3625,0.9999,3.3451,1.2863,-0.6896,-0.0554,0.0149,0.0354,19.7063,-35.4938,-19.0312,213.6666,-17.3940,1.0622,
6.323374,0.3346,0.3847,0.9066,3.3451,1.2863,-0.6896,-0.0554,0.0149,0.0354,19.7063,-35.4938,-19.0312,213.6666,-17.3940,1.0622,
6.325651,0.3363,0.4243,0.8849,3.3451,1.2863,-0.6896,-0.0554,0.0149,0.0354,19.7063,-35.4938,-19.0312,213.6666,-17.3940,1.0622,
6.327896,0.2096,0.3447,0.8963,3.3451,1.2863,-0.6896,-0.0554,0.0149,0.0354,19.7063,-35.4938,-19.0312,213.6666,-17.3940,1.0622,
6.330020,0.2037,0.3139,0.9547,3.3451,1.2863,-0.6896,-0.0554,0.0149,0.0354,19.7063,-35.4938,-19.0312,213.6666,-17.3940,1.0622,
6.358407,0.2037,0.3139,0.9547,3.3451,1.2863,-0.6896,-0.0172,-0.0959,0.0250,19.7063,-35.4938,-19.0312,213.6666,-17.3940,1.0622,
6.367943,0.2037,0.3139,0.9547,1.0860,0.0732,-0.0420,-0.0172,-0.0959,0.0250,19.7063,-35.4938,-19.0312,213.6666,-17.3940,1.0622,
6.374411,0.2037,0.3139,0.9547,1.0860,0.0732,-0.0420,-0.0172,-0.0959,0.0250,19.7063,-35.4938,-19.0312,213.6388,-17.0428,1.1215,
6.381021,0.2037,0.3139,0.9547,1.0860,0.0732,-0.0420,-0.0172,-0.0959,0.0250,18.9000,-35.9625,-19.2000,213.6388,-17.0428,1.1215,
6.418790,0.1402,0.3044,0.9422,1.0860,0.0732,-0.0420,-0.0172,-0.0959,0.0250,18.9000,-35.9625,-19.2000,213.6388,-17.0428,1.1215,
6.428110,0.1406,0.2956,0.9723,1.0860,0.0732,-0.0420,-0.0172,-0.0959,0.0250,18.9000,-35.9625,-19.2000,213.6388,-17.0428,1.1215,
6.435338,0.1362,0.3180,0.9540,1.0860,0.0732,-0.0420,-0.0172,-0.0959,0.0250,18.9000,-35.9625,-19.2000,213.6388,-17.0428,1.1215,
6.441902,0.1646,0.3249,0.9168,1.0860,0.0732,-0.0420,-0.0172,-0.0959,0.0250,18.9000,-35.9625,-19.2000,213.6388,-17.0428,1.1215,
6.445393,0.1746,0.3413,0.9066,1.0860,0.0732,-0.0420,-0.0172,-0.0959,0.0250,18.9000,-35.9625,-19.2000,213.6388,-17.0428,1.1215,
6.449363,0.1746,0.3413,0.9066,1.0860,0.0732,-0.0420,0.0299,-0.2071,0.0168,18.9000,-35.9625,-19.2000,213.6388,-17.0428,1.1215,
6.452982,0.1746,0.3413,0.9066,1.0860,0.0732,-0.0420,0.0299,-0.2071,0.0168,18.9000,-35.9625,-19.2000,213.6388,-17.0428,1.1215,
6.454275,0.1746,0.3413,0.9066,1.5367,0.4587,-0.5797,0.0299,-0.2071,0.0168,18.9000,-35.9625,-19.2000,213.6388,-17.0428,1.1215,
6.455595,0.1746,0.3413,0.9066,1.5367,0.4587,-0.5797,0.0299,-0.2071,0.0168,18.0188,-36.2625,-19.2938,213.6388,-17.0428,1.1215,
6.493761,0.1746,0.3413,0.9066,1.5367,0.4587,-0.5797,0.0674,-0.2625,0.0245,18.0188,-36.2625,-19.2938,213.6388,-17.0428,1.1215,
6.506882,0.1746,0.3413,0.9066,1.5223,0.7162,-0.0466,0.0674,-0.2625,0.0245,18.0188,-36.2625,-19.2938,213.6388,-17.0428,1.1215,
6.512991,0.1746,0.3413,0.9066,1.5223,0.7162,-0.0466,0.0674,-0.2625,0.0245,18.0188,-36.2625,-19.2938,213.6660,-17.0087,1.5937,
6.520458,0.1746,0.3413,0.9066,1.5223,0.7162,-0.0466,0.0674,-0.2625,0.0245,17.1750,-36.7125,-19.2375,213.6660,-17.0087,1.5937,
6.526111,0.1942,0.3508,0.9112,1.5223,0.7162,-0.0466,0.0674,-0.2625,0.0245,17.1750,-36.7125,-19.2375,213.6660,-17.0087,1.5937,
6.531466,0.1820,0.3586,0.9095,1.5223,0.7162,-0.0466,0.0674,-0.2625,0.0245,17.1750,-36.7125,-19.2375,213.6660,-17.0087,1.5937,
6.533848,0.1768,0.3662,0.9408,1.5223,0.7162,-0.0466,0.0674,-0.2625,0.0245,17.1750,-36.7125,-19.2375,213.6660,-17.0087,1.5937,
6.535606,0.2020,0.3694,0.9491,1.5223,0.7162,-0.0466,0.0674,-0.2625,0.0245,17.1750,-36.7125,-19.2375,213.6660,-17.0087,1.5937,
6.537228,0.2093,0.3686,0.9525,1.5223,0.7162,-0.0466,0.0674,-0.2625,0.0245,17.1750,-36.7125,-19.2375,213.6660,-17.0087,1.5937,
6.559380,0.2093,0.3686,0.9525,2.2046,0.8800,-2.7956,0.0674,-0.2625,0.0245,17.1750,-36.7125,-19.2375,213.6660,-17.0087,1.5937,
6.562710,0.2093,0.3686,0.9525,2.2046,0.8800,-2.7956,0.0869,-0.2523,0.0445,17.1750,-36.7125,-19.2375,213.6660,-17.0087,1.5937,
6.563704,0.2093,0.3686,0.9525,2.2046,0.8800,-2.7956,0.0869,-0.2523,0.0445,17.1750,-36.7125,-19.2375,213.6660,-17.0087,1.5937,
6.575941,0.2093,0.3686,0.9525,2.2046,0.8800,-2.7956,0.0869,-0.2523,0.0445,16.2750,-37.1250,-19.1438,213.6660,-17.0087,1.5937,
6.615854,0.2237,0.3845,0.8778,2.2046,0.8800,-2.7956,0.0869,-0.2523,0.0445,16.2750,-37.1250,-19.1438,213.6660,-17.0087,1.5937,
6.618668,0.2707,0.3821,0.7439,2.2046,0.8800,-2.7956,0.0869,-0.2523,0.0445,16.2750,-37.1250,-19.1438,213.6660,-17.0087,1.5937,
6.619987,0.2970,0.3862,1.0158,2.2046,0.8800,-2.7956,0.0869,-0.2523,0.0445,16.2750,-37.1250,-19.1438,213.6660,-17.0087,1.5937,
6.621280,0.2934,0.4009,1.0431,2.2046,0.8800,-2.7956,0.0869,-0.2523,0.0445,16.2750,-37.1250,-19.1438,213.6660,-17.0087,1.5937,
6.622624,0.2511,0.3603,0.9689,2.2046,0.8800,-2.7956,0.0869,-0.2523,0.0445,16.2750,-37.1250,-19.1438,213.6660,-17.0087,1.5937,
6.623631,0.2511,0.3603,0.9689,2.2046,0.8800,-2.7956,0.0869,-0.2523,0.0445,16.2750,-37.1250,-19.1438,213.7239,-17.1270,2.2127,
6.624663,0.2511,0.3603,0.9689,1.8426,0.5974,-0.2385,0.0869,-0.2523,0.0445,16.2750,-37.1250,-19.1438,213.7239,-17.1270,2.2127,
6.625663,0.2511,0.3603,0.9689,1.8426,0.5974,-0.2385,0.0939,-0.2183,0.0579,16.2750,-37.1250,-19.1438,213.7239,-17.1270,2.2127,
6.644682,0.2511,0.3603,0.9689,1.8426,0.5974,-0.2385,0.0939,-0.2183,0.0579,15.4500,-37.5375,-18.9000,213.7239,-17.1270,2.2127,
6.690832,0.2511,0.3603,0.9689,1.8426,0.5974,-0.2385,0.0971,-0.2025,0.0543,15.4500,-37.5375,-18.9000,213.7239,-17.1270,2.2127,
6.693842,0.2511,0.3603,0.9689,2.3863,0.9545,-0.1528,0.0971,-0.2025,0.0543,15.4500,-37.5375,-18.9000,213.7239,-17.1270,2.2127,
6.695318,0.2511,0.3603,0.9689,2.3863,0.9545,-0.1528,0.0971,-0.2025,0.0543,15.4500,-37.5375,-18.9000,213.7239,-17.1270,2.2127,
6.713696,0.2191,0.3757,0.8685,2.3863,0.9545,-0.1528,0.0971,-0.2025,0.0543,15.4500,-37.5375,-18.9000,213.7239,-17.1270,2.2127,
6.716165,0.2726,0.3808,0.8421,2.3863,0.9545,-0.1528,0.0971,-0.2025,0.0543,15.4500,-37.5375,-18.9000,213.7239,-17.1270,2.2127,
6.717444,0.3131,0.3938,0.8824,2.3863,0.9545,-0.1528,0.0971,-0.2025,0.0543,15.4500,-37.5375,-18.9000,213.7239,-17.1270,2.2127,
6.718913,0.2623,0.3833,0.9530,2.3863,0.9545,-0.1528,0.0971,-0.2025,0.0543,15.4500,-37.5375,-18.9000,213.7239,-17.1270,2.2127,
6.720115,0.1803,0.3493,0.9630,2.3863,0.9545,-0.1528,0.0971,-0.2025,0.0543,15.4500,-37.5375,-18.9000,213.7239,-17.1270,2.2127,
6.721187,0.1803,0.3493,0.9630,2.3863,0.9545,-0.1528,0.0971,-0.2025,0.0543,14.9250,-37.9125,-18.6375,213.7239,-17.1270,2.2127,
6.757552,0.1803,0.3493,0.9630,2.3863,0.9545,-0.1528,0.0989,-0.2078,0.0408,14.9250,-37.9125,-18.6375,213.7239,-17.1270,2.2127,
6.760181,0.1803,0.3493,0.9630,1.4152,0.7195,-0.2190,0.0989,-0.2078,0.0408,14.9250,-37.9125,-18.6375,213.7239,-17.1270,2.2127,
6.761967,0.1803,0.3493,0.9630,1.4152,0.7195,-0.2190,0.0989,-0.2078,0.0408,14.9250,-37.9125,-18.6375,213.7532,-17.2374,2.8080,
6.788987,0.1803,0.3493,0.9630,1.4152,0.7195,-0.2190,0.0989,-0.2078,0.0408,14.8313,-38.0438,-18.4313,213.7532,-17.2374,2.8080,
6.813459,0.1849,0.3672,0.9291,1.4152,0.7195,-0.2190,0.0989,-0.2078,0.0408,14.8313,-38.0438,-18.4313,213.7532,-17.2374,2.8080,
6.816079,0.1932,0.3723,0.9332,1.4152,0.7195,-0.2190,0.0989,-0.2078,0.0408,14.8313,-38.0438,-18.4313,213.7532,-17.2374,2.8080,
6.817818,0.1822,0.3806,0.9422,1.4152,0.7195,-0.2190,0.0989,-0.2078,0.0408,14.8313,-38.0438,-18.4313,213.7532,-17.2374,2.8080,
6.819393,0.1453,0.3657,0.9212,1.4152,0.7195,-0.2190,0.0989,-0.2078,0.0408,14.8313,-38.0438,-18.4313,213.7532,-17.2374,2.8080,
6.820580,0.0852,0.3601,0.9366,1.4152,0.7195,-0.2190,0.0989,-0.2078,0.0408,14.8313,-38.0438,-18.4313,213.7532,-17.2374,2.8080,
6.824065,0.0852,0.3601,0.9366,1.4152,0.7195,-0.2190,0.0976,-0.2094,0.0317,14.8313,-38.0438,-18.4313,213.7532,-17.2374,2.8080,
6.825441,0.0852,0.3601,0.9366,0.0724,-0.0729,-0.6789,0.0976,-0.2094,0.0317,14.8313,-38.0438,-18.4313,213.7532,-17.2374,2.8080,
6.826442,0.0852,0.3601,0.9366,0.0724,-0.0729,-0.6789,0.0976,-0.2094,0.0317,14.8313,-38.0438,-18.4313,213.7532,-17.2374,2.8080,
6.855372,0.0852,0.3601,0.9366,0.0724,-0.0729,-0.6789,0.0976,-0.2094,0.0317,15.3563,-38.0438,-18.2063,213.7532,-17.2374,2.8080,
6.891945,0.0852,0.3601,0.9366,0.0724,-0.0729,-0.6789,0.0893,-0.1823,0.0335,15.3563,-38.0438,-18.2063,213.7532,-17.2374,2.8080,
6.893891,0.0852,0.3601,0.9366,-0.9893,-0.1753,0.2765,0.0893,-0.1823,0.0335,15.3563,-38.0438,-18.2063,213.7532,-17.2374,2.8080,
6.894932,0.0852,0.3601,0.9366,-0.9893,-0.1753,0.2765,0.0893,-0.1823,0.0335,15.3563,-38.0438,-18.2063,213.7246,-17.2998,3.2604,
6.910998,0.0571,0.2904,0.8829,-0.9893,-0.1753,0.2765,0.0893,-0.1823,0.0335,15.3563,-38.0438,-18.2063,213.7246,-17.2998,3.2604,
6.914052,0.0114,0.3283,0.9159,-0.9893,-0.1753,0.2765,0.0893,-0.1823,0.0335,15.3563,-38.0438,-18.2063,213.7246,-17.2998,3.2604,
6.915432,-0.0262,0.2936,0.9476,-0.9893,-0.1753,0.2765,0.0893,-0.1823,0.0335,15.3563,-38.0438,-18.2063,213.7246,-17.2998,3.2604,
6.916755,-0.0425,0.2775,0.9735,-0.9893,-0.1753,0.2765,0.0893,-0.1823,0.0335,15.3563,-38.0438,-18.2063,213.7246,-17.2998,3.2604,
6.917680,-0.0374,0.2821,0.9997,-0.9893,-0.1753,0.2765,0.0893,-0.1823,0.0335,15.3563,-38.0438,-18.2063,213.7246,-17.2998,3.2604,
6.924453,-0.0374,0.2821,0.9997,-0.9893,-0.1753,0.2765,0.0893,-0.1823,0.0335,15.9188,-37.7812,-17.9813,213.7246,-17.2998,3.2604,
6.957616,-0.0374,0.2821,0.9997,-0.9893,-0.1753,0.2765,0.0687,-0.1131,0.0425,15.9188,-37.7812,-17.9813,213.7246,-17.2998,3.2604,
6.959975,-0.0374,0.2821,0.9997,-1.0028,-0.1693,0.2754,0.0687,-0.1131,0.0425,15.9188,-37.7812,-17.9813,213.7246,-17.2998,3.2604,
6.961350,-0.0374,0.2821,0.9997,-1.0028,-0.1693,0.2754,0.0687,-0.1131,0.0425,15.9188,-37.7812,-17.9813,213.7246,-17.2998,3.2604,
6.995202,-0.0374,0.2821,0.9997,-1.0028,-0.1693,0.2754,0.0687,-0.1131,0.0425,16.7250,-37.5188,-17.9062,213.7246,-17.2998,3.2604,
7.008582,-0.0098,0.2838,0.9967,-1.0028,-0.1693,0.2754,0.0687,-0.1131,0.0425,16.7250,-37.5188,-17.9062,213.7246,-17.2998,3.2604,
7.010585,-0.0384,0.2763,0.9775,-1.0028,-0.1693,0.2754,0.0687,-0.1131,0.0425,16.7250,-37.5188,-17.9062,213.7246,-17.2998,3.2604,
7.011915,-0.0452,0.2714,0.9583,-1.0028,-0.1693,0.2754,0.0687,-0.1131,0.0425,16.7250,-37.5188,-17.9062,213.7246,-17.2998,3.2604,
7.013183,-0.0648,0.2606,0.9552,-1.0028,-0.1693,0.2754,0.0687,-0.1131,0.0425,16.7250,-37.5188,-17.9062,213.7246,-17.2998,3.2604,
7.014559,-0.0541,0.2550,0.9339,-1.0028,-0.1693,0.2754,0.0687,-0.1131,0.0425,16.7250,-37.5188,-17.9062,213.7246,-17.2998,3.2604,
7.023963,-0.0541,0.2550,0.9339,-1.0028,-0.1693,0.2754,0.0362,-0.0142,0.0479,16.7250,-37.5188,-17.9062,213.7246,-17.2998,3.2604,
7.025517,-0.0541,0.2550,0.9339,-0.9571,-0.2433,0.0563,0.0362,-0.0142,0.0479,16.7250,-37.5188,-17.9062,213.7246,-17.2998,3.2604,
7.026554,-0.0541,0.2550,0.9339,-0.9571,-0.2433,0.0563,0.0362,-0.0142,0.0479,16.7250,-37.5188,-17.9062,213.7246,-17.2998,3.2604,
7.064225,-0.0541,0.2550,0.9339,-0.9571,-0.2433,0.0563,0.0362,-0.0142,0.0479,17.5688,-37.1250,-17.8688,213.7246,-17.2998,3.2604,
7.091058,-0.0541,0.2550,0.9339,-0.9571,-0.2433,0.0563,0.0003,0.0823,0.0412,17.5688,-37.1250,-17.8688,213.7246,-17.2998,3.2604,
7.092801,-0.0541,0.2550,0.9339,-1.0664,-0.5363,0.1470,0.0003,0.0823,0.0412,17.5688,-37.1250,-17.8688,213.7246,-17.2998,3.2604,
7.093897,-0.0541,0.2550,0.9339,-1.0664,-0.5363,0.1470,0.0003,0.0823,0.0412,17.5688,-37.1250,-17.8688,213.7246,-17.2998,3.2604,
7.106919,-0.0379,0.2370,0.9704,-1.0664,-0.5363,0.1470,0.0003,0.0823,0.0412,17.5688,-37.1250,-17.8688,213.7246,-17.2998,3.2604,
7.108883,0.0087,0.2458,1.0043,-1.0664,-0.5363,0.1470,0.0003,0.0823,0.0412,17.5688,-37.1250,-17.8688,213.7246,-17.2998,3.2604,
7.110372,-0.0678,0.3205,0.9699,-1.0664,-0.5363,0.1470,0.0003,0.0823,0.0412,17.5688,-37.1250,-17.8688,213.7246,-17.2998,3.2604,
7.111403,-0.0783,0.3127,0.8438,-1.0664,-0.5363,0.1470,0.0003,0.0823,0.0412,17.5688,-37.1250,-17.8688,213.7246,-17.2998,3.2604,
7.112358,-0.0430,0.1419,0.8587,-1.0664,-0.5363,0.1470,0.0003,0.0823,0.0412,17.5688,-37.1250,-17.8688,213.7246,-17.2998,3.2604,
7.136089,-0.0430,0.1419,0.8587,-1.0664,-0.5363,0.1470,0.0003,0.0823,0.0412,18.6750,-36.6188,-17.8500,213.7246,-17.2998,3.2604,
7.157629,-0.0430,0.1419,0.8587,-1.0664,-0.5363,0.1470,-0.0301,0.1495,0.0235,18.6750,-36.6188,-17.8500,213.7246,-17.2998,3.2604,
7.160860,-0.0430,0.1419,0.8587,-0.7379,-1.3528,-1.1636,-0.0301,0.1495,0.0235,18.6750,-36.6188,-17.8500,213.7246,-17.2998,3.2604,
7.162933,-0.0430,0.1419,0.8587,-0.7379,-1.3528,-1.1636,-0.0301,0.1495,0.0235,18.6750,-36.6188,-17.8500,213.7246,-17.2998,3.2604,
7.205797,-0.1215,0.1851,1.0509,-0.7379,-1.3528,-1.1636,-0.0301,0.1495,0.0235,18.6750,-36.6188,-17.8500,213.7246,-17.2998,3.2604,
7.209306,-0.1237,0.2015,1.1245,-0.7379,-1.3528,-1.1636,-0.0301,0.1495,0.0235,18.6750,-36.6188,-17.8500,213.7246,-17.2998,3.2604,
7.211236,-0.1012,0.1951,1.1050,-0.7379,-1.3528,-1.1636,-0.0301,0.1495,0.0235,18.6750,-36.6188,-17.8500,213.7246,-17.2998,3.2604,
7.212268,-0.1300,0.1805,1.0243,-0.7379,-1.3528,-1.1636,-0.0301,0.1495,0.0235,18.6750,-36.6188,-17.8500,213.7246,-17.2998,3.2604,
7.213263,-0.1351,0.2061,0.9173,-0.7379,-1.3528,-1.1636,-0.0301,0.1495,0.0235,18.6750,-36.6188,-17.8500,213.7246,-17.2998,3.2604,
7.214170,-0.1351,0.2061,0.9173,-0.7379,-1.3528,-1.1636,-0.0301,0.1495,0.0235,19.9500,-35.9250,-18.0375,213.7246,-17.2998,3.2604,
7.225101,-0.1351,0.2061,0.9173,-0.7379,-1.3528,-1.1636,-0.0301,0.1495,0.0235,19.9500,-35.9250,-18.0375,213.2096,-16.8457,2.9202,
7.226967,-0.1351,0.2061,0.9173,-1.5106,-0.9592,1.3712,-0.0301,0.1495,0.0235,19.9500,-35.9250,-18.0375,213.2096,-16.8457,2.9202,
7.227961,-0.1351,0.2061,0.9173,-1.5106,-0.9592,1.3712,-0.0523,0.1832,0.0001,19.9500,-35.9250,-18.0375,213.2096,-16.8457,2.9202,
7.276435,-0.1351,0.2061,0.9173,-1.5106,-0.9592,1.3712,-0.0523,0.1832,0.0001,21.1125,-35.3063,-18.3375,213.2096,-16.8457,2.9202,
7.292231,-0.1351,0.2061,0.9173,-1.5106,-0.9592,1.3712,-0.0709,0.1982,-0.0228,21.1125,-35.3063,-18.3375,213.2096,-16.8457,2.9202,
7.295148,-0.1351,0.2061,0.9173,-0.9889,-0.7876,0.8549,-0.0709,0.1982,-0.0228,21.1125,-35.3063,-18.3375,213.2096,-16.8457,2.9202,
7.296259,-0.1351,0.2061,0.9173,-0.9889,-0.7876,0.8549,-0.0709,0.1982,-0.0228,21.1125,-35.3063,-18.3375,213.2096,-16.8457,2.9202,
7.303592,-0.0870,0.2379,0.9632,-0.9889,-0.7876,0.8549,-0.0709,0.1982,-0.0228,21.1125,-35.3063,-18.3375,213.2096,-16.8457,2.9202,
7.305864,-0.0565,0.1930,1.0644,-0.9889,-0.7876,0.8549,-0.0709,0.1982,-0.0228,21.1125,-35.3063,-18.3375,213.2096,-16.8457,2.9202,
7.307111,-0.0731,0.1502,1.1301,-0.9889,-0.7876,0.8549,-0.0709,0.1982,-0.0228,21.1125,-35.3063,-18.3375,213.2096,-16.8457,2.9202,
7.308108,-0.1520,0.1534,1.0930,-0.9889,-0.7876,0.8549,-0.0709,0.1982,-0.0228,21.1125,-35.3063,-18.3375,213.2096,-16.8457,2.9202,
7.309078,-0.1823,0.1561,1.0326,-0.9889,-0.7876,0.8549,-0.0709,0.1982,-0.0228,21.1125,-35.3063,-18.3375,213.2096,-16.8457,2.9202,
7.346848,-0.1823,0.1561,1.0326,-0.9889,-0.7876,0.8549,-0.0709,0.1982,-0.0228,22.1813,-34.6313,-18.6375,213.2096,-16.8457,2.9202,
7.359089,-0.1823,0.1561,1.0326,-1.8800,-1.1705,0.4870,-0.0709,0.1982,-0.0228,22.1813,-34.6313,-18.6375,213.2096,-16.8457,2.9202,
7.362490,-0.1823,0.1561,1.0326,-1.8800,-1.1705,0.4870,-0.0709,0.1982,-0.0228,22.1813,-34.6313,-18.6375,213.0637,-16.5515,2.5324,
7.363773,-0.1823,0.1561,1.0326,-1.8800,-1.1705,0.4870,-0.0917,0.2056,-0.0412,22.1813,-34.6313,-18.6375,213.0637,-16.5515,2.5324,
7.403468,-0.0785,0.2027,0.9547,-1.8800,-1.1705,0.4870,-0.0917,0.2056,-0.0412,22.1813,-34.6313,-18.6375,213.0637,-16.5515,2.5324,
7.406935,-0.0905,0.2042,0.9527,-1.8800,-1.1705,0.4870,-0.0917,0.2056,-0.0412,22.1813,-34.6313,-18.6375,213.0637,-16.5515,2.5324,
7.407936,-0.1185,0.1788,1.0038,-1.8800,-1.1705,0.4870,-0.0917,0.2056,-0.0412,22.1813,-34.6313,-18.6375,213.0637,-16.5515,2.5324,
7.408894,-0.0751,0.1524,0.9782,-1.8800,-1.1705,0.4870,-0.0917,0.2056,-0.0412,22.1813,-34.6313,-18.6375,213.0637,-16.5515,2.5324,
7.409874,-0.0931,0.1514,0.9562,-1.8800,-1.1705,0.4870,-0.0917,0.2056,-0.0412,22.1813,-34.6313,-18.6375,213.0637,-16.5515,2.5324,
7.416459,-0.0931,0.1514,0.9562,-1.8800,-1.1705,0.4870,-0.0917,0.2056,-0.0412,22.9125,-33.9563,-18.9563,213.0637,-16.5515,2.5324,
7.424872,-0.0931,0.1514,0.9562,-1.8800,-1.1705,0.4870,-0.0917,0.2056,-0.0412,22.9125,-33.9563,-18.9563,213.0637,-16.5515,2.5324,
7.426444,-0.0931,0.1514,0.9562,-1.8800,-1.1705,0.4870,-0.1131,0.2072,-0.0537,22.9125,-33.9563,-18.9563,213.0637,-16.5515,2.5324,
7.427453,-0.0931,0.1514,0.9562,-1.3920,-1.2435,0.4405,-0.1131,0.2072,-0.0537,22.9125,-33.9563,-18.9563,213.0637,-16.5515,2.5324,
7.485797,-0.0931,0.1514,0.9562,-1.3920,-1.2435,0.4405,-0.1131,0.2072,-0.0537,23.4750,-33.4313,-19.2563,213.0637,-16.5515,2.5324,
7.491872,-0.0931,0.1514,0.9562,-1.3920,-1.2435,0.4405,-0.1287,0.2030,-0.0611,23.4750,-33.4313,-19.2563,213.0637,-16.5515,2.5324,
7.494681,-0.0931,0.1514,0.9562,-1.3920,-1.2435,0.4405,-0.1287,0.2030,-0.0611,23.4750,-33.4313,-19.2563,212.9704,-16.2324,2.1387,
7.495800,-0.0931,0.1514,0.9562,-1.4200,-1.4110,0.0284,-0.1287,0.2030,-0.0611,23.4750,-33.4313,-19.2563,212.9704,-16.2324,2.1387,
7.501847,-0.0858,0.1847,0.9601,-1.4200,-1.4110,0.0284,-0.1287,0.2030,-0.0611,23.4750,-33.4313,-19.2563,212.9704,-16.2324,2.1387,
7.504229,-0.1063,0.1539,0.9748,-1.4200,-1.4110,0.0284,-0.1287,0.2030,-0.0611,23.4750,-33.4313,-19.2563,212.9704,-16.2324,2.1387,
7.505469,-0.0993,0.1261,0.9770,-1.4200,-1.4110,0.0284,-0.1287,0.2030,-0.0611,23.4750,-33.4313,-19.2563,212.9704,-16.2324,2.1387,
7.506701,-0.0697,0.1549,0.9806,-1.4200,-1.4110,0.0284,-0.1287,0.2030,-0.0611,23.4750,-33.4313,-19.2563,212.9704,-16.2324,2.1387,
7.507789,-0.1420,0.1844,0.9914,-1.4200,-1.4110,0.0284,-0.1287,0.2030,-0.0611,23.4750,-33.4313,-19.2563,212.9704,-16.2324,2.1387,
7.554548,-0.1420,0.1844,0.9914,-1.4200,-1.4110,0.0284,-0.1287,0.2030,-0.0611,23.7750,-32.9625,-19.5188,212.9704,-16.2324,2.1387,
7.556970,-0.1420,0.1844,0.9914,-1.7884,-0.9615,-0.3112,-0.1287,0.2030,-0.0611,23.7750,-32.9625,-19.5188,212.9704,-16.2324,2.1387,
7.558119,-0.1420,0.1844,0.9914,-1.7884,-0.9615,-0.3112,-0.1287,0.2030,-0.0611,23.7750,-32.9625,-19.5188,212.9704,-16.2324,2.1387,
7.559095,-0.1420,0.1844,0.9914,-1.7884,-0.9615,-0.3112,-0.1327,0.1912,-0.0670,23.7750,-32.9625,-19.5188,212.9704,-16.2324,2.1387,
7.598503,-0.1332,0.1661,0.9098,-1.7884,-0.9615,-0.3112,-0.1327,0.1912,-0.0670,23.7750,-32.9625,-19.5188,212.9704,-16.2324,2.1387,
7.601526,-0.0555,0.1278,0.9017,-1.7884,-0.9615,-0.3112,-0.1327,0.1912,-0.0670,23.7750,-32.9625,-19.5188,212.9704,-16.2324,2.1387,
7.603863,0.0307,0.1174,0.9865,-1.7884,-0.9615,-0.3112,-0.1327,0.1912,-0.0670,23.7750,-32.9625,-19.5188,212.9704,-16.2324,2.1387,
7.605953,-0.0494,0.1429,1.0133,-1.7884,-0.9615,-0.3112,-0.1327,0.1912,-0.0670,23.7750,-32.9625,-19.5188,212.9704,-16.2324,2.1387,
7.608093,-0.0626,0.2088,0.9532,-1.7884,-0.9615,-0.3112,-0.1327,0.1912,-0.0670,23.7750,-32.9625,-19.5188,212.9704,-16.2324,2.1387,
7.625507,-0.0626,0.2088,0.9532,-1.2113,-1.2352,0.2355,-0.1327,0.1912,-0.0670,23.7750,-32.9625,-19.5188,212.9704,-16.2324,2.1387,
7.628901,-0.0626,0.2088,0.9532,-1.2113,-1.2352,0.2355,-0.1275,0.1641,-0.0744,23.7750,-32.9625,-19.5188,212.9704,-16.2324,2.1387,
7.631255,-0.0626,0.2088,0.9532,-1.2113,-1.2352,0.2355,-0.1275,0.1641,-0.0744,23.7750,-32.9625,-19.5188,212.9609,-15.8882,1.8424,
7.633477,-0.0626,0.2088,0.9532,-1.2113,-1.2352,0.2355,-0.1275,0.1641,-0.0744,23.8313,-32.7563,-19.8000,212.9609,-15.8882,1.8424,
7.692009,-0.0626,0.2088,0.9532,-1.2113,-1.2352,0.2355,-0.1156,0.1159,-0.0837,23.8313,-32.7563,-19.8000,212.9609,-15.8882,1.8424,
7.703697,-0.0626,0.2088,0.9532,1.1455,-0.3685,-0.1867,-0.1156,0.1159,-0.0837,23.8313,-32.7563,-19.8000,212.9609,-15.8882,1.8424,
7.710739,-0.0626,0.2088,0.9532,1.1455,-0.3685,-0.1867,-0.1156,0.1159,-0.0837,23.8313,-32.7563,-19.8000,212.9609,-15.8882,1.8424,
7.714870,-0.0626,0.2088,0.9532,1.1455,-0.3685,-0.1867,-0.1156,0.1159,-0.0837,23.7188,-32.5875,-20.1750,212.9609,-15.8882,1.8424,
7.721842,-0.0096,0.2458,0.9647,1.1455,-0.3685,-0.1867,-0.1156,0.1159,-0.0837,23.7188,-32.5875,-20.1750,212.9609,-15.8882,1.8424,
7.726839,0.0273,0.2538,0.9770,1.1455,-0.3685,-0.1867,-0.1156,0.1159,-0.0837,23.7188,-32.5875,-20.1750,212.9609,-15.8882,1.8424,
7.732567,0.1932,0.2370,0.9386,1.1455,-0.3685,-0.1867,-0.1156,0.1159,-0.0837,23.7188,-32.5875,-20.1750,212.9609,-15.8882,1.8424,
7.734341,0.1832,0.2384,0.9960,1.1455,-0.3685,-0.1867,-0.1156,0.1159,-0.0837,23.7188,-32.5875,-20.1750,212.9609,-15.8882,1.8424,
7.736128,0.0813,0.2492,0.9593,1.1455,-0.3685,-0.1867,-0.1156,0.1159,-0.0837,23.7188,-32.5875,-20.1750,212.9609,-15.8882,1.8424,
7.757882,0.0813,0.2492,0.9593,1.1455,-0.3685,-0.1867,-0.0951,0.0540,-0.0925,23.7188,-32.5875,-20.1750,212.9609,-15.8882,1.8424,
7.761929,0.0813,0.2492,0.9593,0.4150,0.3427,0.1631,-0.0951,0.0540,-0.0925,23.7188,-32.5875,-20.1750,212.9609,-15.8882,1.8424,
7.769966,0.0813,0.2492,0.9593,0.4150,0.3427,0.1631,-0.0951,0.0540,-0.0925,23.7188,-32.5875,-20.1750,212.9609,-15.8882,1.8424,
7.774129,0.0813,0.2492,0.9593,0.4150,0.3427,0.1631,-0.0951,0.0540,-0.0925,23.4000,-32.4750,-20.5500,212.9609,-15.8882,1.8424,
7.796507,0.0706,0.3017,0.9605,0.4150,0.3427,0.1631,-0.0951,0.0540,-0.0925,23.4000,-32.4750,-20.5500,212.9609,-15.8882,1.8424,
7.800264,0.0662,0.2733,1.0505,0.4150,0.3427,0.1631,-0.0951,0.0540,-0.0925,23.4000,-32.4750,-20.5500,212.9609,-15.8882,1.8424,
7.802476,0.0449,0.2179,1.0869,0.4150,0.3427,0.1631,-0.0951,0.0540,-0.0925,23.4000,-32.4750,-20.5500,212.9609,-15.8882,1.8424,
7.804577,0.0630,0.2100,1.0407,0.4150,0.3427,0.1631,-0.0951,0.0540,-0.0925,23.4000,-32.4750,-20.5500,212.9609,-15.8882,1.8424,
7.806774,0.1384,0.1837,0.9767,0.4150,0.3427,0.1631,-0.0951,0.0540,-0.0925,23.4000,-32.4750,-20.5500,212.9609,-15.8882,1.8424,
7.825173,0.1384,0.1837,0.9767,0.4150,0.3427,0.1631,-0.0695,-0.0060,-0.0972,23.4000,-32.4750,-20.5500,212.9609,-15.8882,1.8424,
7.828818,0.1384,0.1837,0.9767,1.0334,-0.8626,-0.1423,-0.0695,-0.0060,-0.0972,23.4000,-32.4750,-20.5500,212.9609,-15.8882,1.8424,
7.831198,0.1384,0.1837,0.9767,1.0334,-0.8626,-0.1423,-0.0695,-0.0060,-0.0972,23.4000,-32.4750,-20.5500,213.3567,-15.5751,1.9605,
7.835672,0.1384,0.1837,0.9767,1.0334,-0.8626,-0.1423,-0.0695,-0.0060,-0.0972,23.1188,-32.4188,-20.9625,213.3567,-15.5751,1.9605,
7.892389,0.1384,0.1837,0.9767,1.0334,-0.8626,-0.1423,-0.0509,-0.0519,-0.0951,23.1188,-32.4188,-20.9625,213.3567,-15.5751,1.9605,
7.902892,0.1384,0.1837,0.9767,-0.8345,-0.3940,0.5207,-0.0509,-0.0519,-0.0951,23.1188,-32.4188,-20.9625,213.3567,-15.5751,1.9605,
7.911058,0.0859,0.1991,0.9916,-0.8345,-0.3940,0.5207,-0.0509,-0.0519,-0.0951,23.1188,-32.4188,-20.9625,213.3567,-15.5751,1.9605,
7.914534,0.0263,0.2232,0.9510,-0.8345,-0.3940,0.5207,-0.0509,-0.0519,-0.0951,23.1188,-32.4188,-20.9625,213.3567,-15.5751,1.9605,
7.917949,-0.0164,0.2201,0.9787,-0.8345,-0.3940,0.5207,-0.0509,-0.0519,-0.0951,23.1188,-32.4188,-20.9625,213.3567,-15.5751,1.9605,
7.921393,-0.0245,0.2096,0.9887,-0.8345,-0.3940,0.5207,-0.0509,-0.0519,-0.0951,23.1188,-32.4188,-20.9625,213.3567,-15.5751,1.9605,
7.924545,0.0750,0.1861,1.0996,-0.8345,-0.3940,0.5207,-0.0509,-0.0519,-0.0951,23.1188,-32.4188,-20.9625,213.3567,-15.5751,1.9605,
7.927778,0.0750,0.1861,1.0996,-0.8345,-0.3940,0.5207,-0.0509,-0.0519,-0.0951,23.1188,-32.4188,-20.9625,213.3567,-15.5751,1.9605,
7.931233,0.0750,0.1861,1.0996,-0.8345,-0.3940,0.5207,-0.0509,-0.0519,-0.0951,22.7063,-32.4000,-21.2625,213.3567,-15.5751,1.9605,
7.959574,0.0750,0.1861,1.0996,0.7272,-0.1609,0.2184,-0.0509,-0.0519,-0.0951,22.7063,-32.4000,-21.2625,213.3567,-15.5751,1.9605,
7.968029,0.0750,0.1861,1.0996,0.7272,-0.1609,0.2184,-0.0509,-0.0519,-0.0951,22.7063,-32.4000,-21.2625,213.8095,-15.4477,2.3787,
7.974643,0.0750,0.1861,1.0996,0.7272,-0.1609,0.2184,-0.0481,-0.0806,-0.0865,22.7063,-32.4000,-21.2625,213.8095,-15.4477,2.3787,
7.985146,0.0750,0.1861,1.0996,0.7272,-0.1609,0.2184,-0.0481,-0.0806,-0.0865,22.4625,-32.3438,-21.5813,213.8095,-15.4477,2.3787,
7.993647,0.1221,0.1995,1.0014,0.7272,-0.1609,0.2184,-0.0481,-0.0806,-0.0865,22.4625,-32.3438,-21.5813,213.8095,-15.4477,2.3787,
7.998825,0.0886,0.2443,0.9858,0.7272,-0.1609,0.2184,-0.0481,-0.0806,-0.0865,22.4625,-32.3438,-21.5813,213.8095,-15.4477,2.3787,
8.002615,0.0163,0.2183,0.9889,0.7272,-0.1609,0.2184,-0.0481,-0.0806,-0.0865,22.4625,-32.3438,-21.5813,213.8095,-15.4477,2.3787,
8.006853,0.0497,0.2548,1.0180,0.7272,-0.1609,0.2184,-0.0481,-0.0806,-0.0865,22.4625,-32.3438,-21.5813,213.8095,-15.4477,2.3787,
8.011953,0.0659,0.2504,0.9359,0.7272,-0.1609,0.2184,-0.0481,-0.0806,-0.0865,22.4625,-32.3438,-21.5813,213.8095,-15.4477,2.3787,
8.025268,0.0659,0.2504,0.9359,0.7272,-0.1609,0.2184,-0.0554,-0.0910,-0.0749,22.4625,-32.3438,-21.5813,213.8095,-15.4477,2.3787,
8.028314,0.0659,0.2504,0.9359,0.1131,-0.3076,-0.6401,-0.0554,-0.0910,-0.0749,22.4625,-32.3438,-21.5813,213.8095,-15.4477,2.3787,
8.030019,0.0659,0.2504,0.9359,0.1131,-0.3076,-0.6401,-0.0554,-0.0910,-0.0749,22.4625,-32.3438,-21.5813,213.8095,-15.4477,2.3787,
8.045464,0.0659,0.2504,0.9359,0.1131,-0.3076,-0.6401,-0.0554,-0.0910,-0.0749,22.3688,-32.3813,-21.8063,213.8095,-15.4477,2.3787,
8.091063,0.0161,0.1805,0.8540,0.1131,-0.3076,-0.6401,-0.0554,-0.0910,-0.0749,22.3688,-32.3813,-21.8063,213.8095,-15.4477,2.3787,
8.101749,-0.0159,0.1297,0.9181,0.1131,-0.3076,-0.6401,-0.0554,-0.0910,-0.0749,22.3688,-32.3813,-21.8063,213.8095,-15.4477,2.3787,
8.109867,-0.0008,0.1444,1.0102,0.1131,-0.3076,-0.6401,-0.0554,-0.0910,-0.0749,22.3688,-32.3813,-21.8063,213.8095,-15.4477,2.3787,
8.116715,0.0036,0.1898,1.0397,0.1131,-0.3076,-0.6401,-0.0554,-0.0910,-0.0749,22.3688,-32.3813,-21.8063,213.8095,-15.4477,2.3787,
8.121281,-0.0264,0.1942,1.0199,0.1131,-0.3076,-0.6401,-0.0554,-0.0910,-0.0749,22.3688,-32.3813,-21.8063,213.8095,-15.4477,2.3787,
8.127723,-0.0264,0.1942,1.0199,0.1131,-0.3076,-0.6401,-0.0608,-0.0800,-0.0644,22.3688,-32.3813,-21.8063,213.8095,-15.4477,2.3787,
8.133036,-0.0264,0.1942,1.0199,-0.4211,-0.7283,0.7986,-0.0608,-0.0800,-0.0644,22.3688,-32.3813,-21.8063,213.8095,-15.4477,2.3787,
8.138662,-0.0264,0.1942,1.0199,-0.4211,-0.7283,0.7986,-0.0608,-0.0800,-0.0644,22.3688,-32.3813,-21.8063,214.2823,-15.2924,2.7934,
8.144007,-0.0264,0.1942,1.0199,-0.4211,-0.7283,0.7986,-0.0608,-0.0800,-0.0644,22.4813,-32.1938,-22.0125,214.2823,-15.2924,2.7934,
8.158836,-0.0264,0.1942,1.0199,-0.4211,-0.7283,0.7986,-0.0608,-0.0533,-0.0599,22.4813,-32.1938,-22.0125,214.2823,-15.2924,2.7934,
8.161464,-0.0264,0.1942,1.0199,-0.9055,-0.7781,0.4502,-0.0608,-0.0533,-0.0599,22.4813,-32.1938,-22.0125,214.2823,-15.2924,2.7934,
8.163298,-0.0264,0.1942,1.0199,-0.9055,-0.7781,0.4502,-0.0608,-0.0533,-0.0599,22.4813,-32.1938,-22.0125,214.2823,-15.2924,2.7934,
8.185934,-0.0264,0.1942,1.0199,-0.9055,-0.7781,0.4502,-0.0608,-0.0533,-0.0599,22.6875,-32.0063,-22.0875,214.2823,-15.2924,2.7934,
8.189347,-0.0582,0.1893,1.0175,-0.9055,-0.7781,0.4502,-0.0608,-0.0533,-0.0599,22.6875,-32.0063,-22.0875,214.2823,-15.2924,2.7934,
8.191553,-0.0486,0.1800,1.0209,-0.9055,-0.7781,0.4502,-0.0608,-0.0533,-0.0599,22.6875,-32.0063,-22.0875,214.2823,-15.2924,2.7934,
8.193696,0.0021,0.1851,1.0182,-0.9055,-0.7781,0.4502,-0.0608,-0.0533,-0.0599,22.6875,-32.0063,-22.0875,214.2823,-15.2924,2.7934,
8.195728,0.0143,0.1883,1.0475,-0.9055,-0.7781,0.4502,-0.0608,-0.0533,-0.0599,22.6875,-32.0063,-22.0875,214.2823,-15.2924,2.7934,
8.197781,-0.0247,0.1983,1.0573,-0.9055,-0.7781,0.4502,-0.0608,-0.0533,-0.0599,22.6875,-32.0063,-22.0875,214.2823,-15.2924,2.7934,
8.225019,-0.0247,0.1983,1.0573,-0.9055,-0.7781,0.4502,-0.0590,-0.0226,-0.0635,22.6875,-32.0063,-22.0875,214.2823,-15.2924,2.7934,
8.233889,-0.0247,0.1983,1.0573,-0.9055,-0.7781,0.4502,-0.0590,-0.0226,-0.0635,22.6875,-32.0063,-22.0875,214.2823,-15.2924,2.7934,
8.240359,-0.0247,0.1983,1.0573,-0.5006,-0.4656,0.6023,-0.0590,-0.0226,-0.0635,22.6875,-32.0063,-22.0875,214.2823,-15.2924,2.7934,
8.256973,-0.0247,0.1983,1.0573,-0.5006,-0.4656,0.6023,-0.0590,-0.0226,-0.0635,22.8938,-31.8938,-21.9375,214.2823,-15.2924,2.7934,
8.288365,-0.0067,0.2230,1.0087,-0.5006,-0.4656,0.6023,-0.0590,-0.0226,-0.0635,22.8938,-31.8938,-21.9375,214.2823,-15.2924,2.7934,
8.295872,-0.0726,0.2220,0.9176,-0.5006,-0.4656,0.6023,-0.0590,-0.0226,-0.0635,22.8938,-31.8938,-21.9375,214.2823,-15.2924,2.7934,
8.303233,-0.0301,0.2201,0.8624,-0.5006,-0.4656,0.6023,-0.0590,-0.0226,-0.0635,22.8938,-31.8938,-21.9375,214.2823,-15.2924,2.7934,
8.312785,-0.0374,0.2010,0.8357,-0.5006,-0.4656,0.6023,-0.0590,-0.0226,-0.0635,22.8938,-31.8938,-21.9375,214.2823,-15.2924,2.7934,
8.321869,-0.1388,0.2338,0.8707,-0.5006,-0.4656,0.6023,-0.0590,-0.0226,-0.0635,22.8938,-31.8938,-21.9375,214.2823,-15.2924,2.7934,
8.326781,-0.1388,0.2338,0.8707,-0.5006,-0.4656,0.6023,-0.0544,0.0043,-0.0697,22.8938,-31.8938,-21.9375,214.2823,-15.2924,2.7934,
8.331526,-0.1388,0.2338,0.8707,-0.5006,-0.4656,0.6023,-0.0544,0.0043,-0.0697,22.8938,-31.8938,-21.9375,214.7999,-14.9037,2.6284,
8.334006,-0.1388,0.2338,0.8707,-1.4176,-0.6213,-1.3604,-0.0544,0.0043,-0.0697,22.8938,-31.8938,-21.9375,214.7999,-14.9037,2.6284,
8.335913,-0.1388,0.2338,0.8707,-1.4176,-0.6213,-1.3604,-0.0544,0.0043,-0.0697,23.2688,-31.8750,-21.7125,214.7999,-14.9037,2.6284,
8.359102,-0.1388,0.2338,0.8707,-1.4176,-0.6213,-1.3604,-0.0417,0.0271,-0.0694,23.2688,-31.8750,-21.7125,214.7999,-14.9037,2.6284,
8.367312,-0.1388,0.2338,0.8707,-1.1950,-1.2326,-0.1703,-0.0417,0.0271,-0.0694,23.2688,-31.8750,-21.7125,214.7999,-14.9037,2.6284,
8.375279,-0.1388,0.2338,0.8707,-1.1950,-1.2326,-0.1703,-0.0417,0.0271,-0.0694,23.2688,-31.8750,-21.7125,214.9111,-14.6870,2.3067,
8.384556,-0.1687,0.1922,1.0085,-1.1950,-1.2326,-0.1703,-0.0417,0.0271,-0.0694,23.2688,-31.8750,-21.7125,214.9111,-14.6870,2.3067,
8.394978,-0.1332,0.1243,0.9753,-1.1950,-1.2326,-0.1703,-0.0417,0.0271,-0.0694,23.2688,-31.8750,-21.7125,214.9111,-14.6870,2.3067,
8.401482,-0.0734,0.1363,0.9557,-1.1950,-1.2326,-0.1703,-0.0417,0.0271,-0.0694,23.2688,-31.8750,-21.7125,214.9111,-14.6870,2.3067,
8.408537,-0.0523,0.1361,1.0593,-1.1950,-1.2326,-0.1703,-0.0417,0.0271,-0.0694,23.2688,-31.8750,-21.7125,214.9111,-14.6870,2.3067,
8.412667,-0.0030,0.1397,0.8238,-1.1950,-1.2326,-0.1703,-0.0417,0.0271,-0.0694,23.2688,-31.8750,-21.7125,214.9111,-14.6870,2.3067,
8.414606,-0.0030,0.1397,0.8238,-1.1950,-1.2326,-0.1703,-0.0417,0.0271,-0.0694,23.4938,-31.7813,-21.6000,214.9111,-14.6870,2.3067,
8.426651,-0.0030,0.1397,0.8238,-1.1950,-1.2326,-0.1703,-0.0253,0.0502,-0.0564,23.4938,-31.7813,-21.6000,214.9111,-14.6870,2.3067,
8.429512,-0.0030,0.1397,0.8238,-1.9587,-0.5436,0.6874,-0.0253,0.0502,-0.0564,23.4938,-31.7813,-21.6000,214.9111,-14.6870,2.3067,
8.431516,-0.0030,0.1397,0.8238,-1.9587,-0.5436,0.6874,-0.0253,0.0502,-0.0564,23.4938,-31.7813,-21.6000,214.9817,-14.4260,1.8726,
8.466786,-0.0030,0.1397,0.8238,-1.9587,-0.5436,0.6874,-0.0253,0.0502,-0.0564,23.1750,-31.8375,-21.7125,214.9817,-14.4260,1.8726,
8.485236,0.0087,0.2157,0.8726,-1.9587,-0.5436,0.6874,-0.0253,0.0502,-0.0564,23.1750,-31.8375,-21.7125,214.9817,-14.4260,1.8726,
8.497321,-0.1564,0.1639,1.1709,-1.9587,-0.5436,0.6874,-0.0253,0.0502,-0.0564,23.1750,-31.8375,-21.7125,214.9817,-14.4260,1.8726,
8.503411,0.2027,0.3816,1.1728,-1.9587,-0.5436,0.6874,-0.0253,0.0502,-0.0564,23.1750,-31.8375,-21.7125,214.9817,-14.4260,1.8726,
8.509056,0.1871,0.2787,1.2288,-1.9587,-0.5436,0.6874,-0.0253,0.0502,-0.0564,23.1750,-31.8375,-21.7125,214.9817,-14.4260,1.8726,
8.514862,0.1553,0.2357,1.1450,-1.9587,-0.5436,0.6874,-0.0253,0.0502,-0.0564,23.1750,-31.8375,-21.7125,214.9817,-14.4260,1.8726,
8.519426,0.1553,0.2357,1.1450,-1.9587,-0.5436,0.6874,-0.0180,0.0712,-0.0322,23.1750,-31.8375,-21.7125,214.9817,-14.4260,1.8726,
8.523960,0.1553,0.2357,1.1450,0.6575,-0.0203,2.2864,-0.0180,0.0712,-0.0322,23.1750,-31.8375,-21.7125,214.9817,-14.4260,1.8726,
8.531425,0.1553,0.2357,1.1450,0.6575,-0.0203,2.2864,-0.0180,0.0712,-0.0322,23.1750,-31.8375,-21.7125,215.0217,-14.1258,1.4425,
8.538908,0.1553,0.2357,1.1450,0.6575,-0.0203,2.2864,-0.0180,0.0712,-0.0322,22.1625,-32.1938,-21.9750,215.0217,-14.1258,1.4425,
8.557263,0.1553,0.2357,1.1450,0.6575,-0.0203,2.2864,-0.0246,0.0660,-0.0052,22.1625,-32.1938,-21.9750,215.0217,-14.1258,1.4425,
8.567478,0.1553,0.2357,1.1450,0.6575,-0.0203,2.2864,-0.0246,0.0660,-0.0052,22.1625,-32.1938,-21.9750,215.0873,-13.7905,1.1555,
8.573549,0.1553,0.2357,1.1450,4.1447,-0.3815,1.9075,-0.0246,0.0660,-0.0052,22.1625,-32.1938,-21.9750,215.0873,-13.7905,1.1555,
8.581964,0.3398,0.3149,0.7490,4.1447,-0.3815,1.9075,-0.0246,0.0660,-0.0052,22.1625,-32.1938,-21.9750,215.0873,-13.7905,1.1555,
8.589010,0.3383,0.2682,0.4004,4.1447,-0.3815,1.9075,-0.0246,0.0660,-0.0052,22.1625,-32.1938,-21.9750,215.0873,-13.7905,1.1555,
8.593052,0.3867,0.1751,1.0578,4.1447,-0.3815,1.9075,-0.0246,0.0660,-0.0052,22.1625,-32.1938,-21.9750,215.0873,-13.7905,1.1555,
8.594979,0.5912,0.2572,1.1819,4.1447,-0.3815,1.9075,-0.0246,0.0660,-0.0052,22.1625,-32.1938,-21.9750,215.0873,-13.7905,1.1555,
