
time,gFx,gFy,gFz,ax,ay,az,wx,wy,wz,Bx,By,Bz,Azimuth,Pitch,Roll,
0.111695,-0.1339,0.0784,1.0426,0.0000,0.0000,0.0000,0.0000,0.0000,0.0000,0.0000,0.0000,0.0000,0.0000,0.0000,0.0000,
0.113927,-0.2446,0.0234,1.0813,0.0000,0.0000,0.0000,0.0000,0.0000,0.0000,0.0000,0.0000,0.0000,0.0000,0.0000,0.0000,
0.115329,-0.2382,0.0366,1.0976,0.0000,0.0000,0.0000,0.0000,0.0000,0.0000,0.0000,0.0000,0.0000,0.0000,0.0000,0.0000,
0.116787,-0.2382,0.0366,1.0976,0.0000,0.0000,0.0000,0.0000,0.0000,0.0000,-7.2000,-39.5625,-25.8375,0.0000,0.0000,0.0000,
0.129691,-0.2382,0.0366,1.0976,0.0000,0.0000,0.0000,0.0030,0.0001,0.0001,-7.2000,-39.5625,-25.8375,0.0000,0.0000,0.0000,
0.131023,-0.2382,0.0366,1.0976,-0.1354,-1.8737,0.2007,0.0030,0.0001,0.0001,-7.2000,-39.5625,-25.8375,0.0000,0.0000,0.0000,
0.132025,-0.2382,0.0366,1.0976,-0.1354,-1.8737,0.2007,0.0030,0.0001,0.0001,-7.2000,-39.5625,-25.8375,132.8951,-18.6932,-2.5702,
0.188660,-0.2382,0.0366,1.0976,-0.1354,-1.8737,0.2007,0.0030,0.0001,0.0001,-7.6125,-39.2250,-26.7375,132.8951,-18.6932,-2.5702,
0.195975,-0.2382,0.0366,1.0976,-1.5257,-1.9656,1.6779,0.0030,0.0001,0.0001,-7.6125,-39.2250,-26.7375,132.8951,-18.6932,-2.5702,
0.197433,-0.2382,0.0366,1.0976,-1.5257,-1.9656,1.6779,0.0030,0.0001,0.0001,-7.6125,-39.2250,-26.7375,132.4894,-19.0039,-3.1209,
0.198781,-0.2382,0.0366,1.0976,-1.5257,-1.9656,1.6779,0.0002,-0.0036,-0.0008,-7.6125,-39.2250,-26.7375,132.4894,-19.0039,-3.1209,
0.210187,-0.2014,0.1109,1.1384,-1.5257,-1.9656,1.6779,0.0002,-0.0036,-0.0008,-7.6125,-39.2250,-26.7375,132.4894,-19.0039,-3.1209,
0.212842,-0.2636,0.0320,1.0265,-1.5257,-1.9656,1.6779,0.0002,-0.0036,-0.0008,-7.6125,-39.2250,-26.7375,132.4894,-19.0039,-3.1209,
0.213865,-0.1591,0.1214,0.9953,-1.5257,-1.9656,1.6779,0.0002,-0.0036,-0.0008,-7.6125,-39.2250,-26.7375,132.4894,-19.0039,-3.1209,
0.214811,-0.2119,0.1424,0.9046,-1.5257,-1.9656,1.6779,0.0002,-0.0036,-0.0008,-7.6125,-39.2250,-26.7375,132.4894,-19.0039,-3.1209,
0.215781,-0.3116,0.0547,0.8929,-1.5257,-1.9656,1.6779,0.0002,-0.0036,-0.0008,-7.6125,-39.2250,-26.7375,132.4894,-19.0039,-3.1209,
0.257625,-0.3116,0.0547,0.8929,-1.5257,-1.9656,1.6779,0.0002,-0.0036,-0.0008,-8.1000,-38.6438,-27.2438,132.4894,-19.0039,-3.1209,
0.262128,-0.3116,0.0547,0.8929,-1.5257,-1.9656,1.6779,-0.0022,-0.0048,0.0032,-8.1000,-38.6438,-27.2438,132.4894,-19.0039,-3.1209,
0.264421,-0.3116,0.0547,0.8929,-2.1033,-2.3292,-0.7696,-0.0022,-0.0048,0.0032,-8.1000,-38.6438,-27.2438,132.4894,-19.0039,-3.1209,
0.265865,-0.3116,0.0547,0.8929,-2.1033,-2.3292,-0.7696,-0.0022,-0.0048,0.0032,-8.1000,-38.6438,-27.2438,132.3194,-19.1609,-3.6358,
0.309055,-0.4181,-0.0545,1.0700,-2.1033,-2.3292,-0.7696,-0.0022,-0.0048,0.0032,-8.1000,-38.6438,-27.2438,132.3194,-19.1609,-3.6358,
0.311493,-0.2287,0.0486,1.2059,-2.1033,-2.3292,-0.7696,-0.0022,-0.0048,0.0032,-8.1000,-38.6438,-27.2438,132.3194,-19.1609,-3.6358,
0.313076,-0.2805,0.0146,1.1880,-2.1033,-2.3292,-0.7696,-0.0022,-0.0048,0.0032,-8.1000,-38.6438,-27.2438,132.3194,-19.1609,-3.6358,
0.314141,-0.1699,0.0281,1.1738,-2.1033,-2.3292,-0.7696,-0.0022,-0.0048,0.0032,-8.1000,-38.6438,-27.2438,132.3194,-19.1609,-3.6358,
0.315179,-0.1193,0.0173,1.1475,-2.1033,-2.3292,-0.7696,-0.0022,-0.0048,0.0032,-8.1000,-38.6438,-27.2438,132.3194,-19.1609,-3.6358,
0.326533,-0.1193,0.0173,1.1475,-2.1033,-2.3292,-0.7696,-0.0022,-0.0048,0.0032,-8.7563,-38.5125,-27.4125,132.3194,-19.1609,-3.6358,
0.328757,-0.1193,0.0173,1.1475,-2.1033,-2.3292,-0.7696,0.0027,0.0036,-0.0013,-8.7563,-38.5125,-27.4125,132.3194,-19.1609,-3.6358,
0.329701,-0.1193,0.0173,1.1475,-1.9234,-3.0903,2.3680,0.0027,0.0036,-0.0013,-8.7563,-38.5125,-27.4125,132.3194,-19.1609,-3.6358,
0.330697,-0.1193,0.0173,1.1475,-1.9234,-3.0903,2.3680,0.0027,0.0036,-0.0013,-8.7563,-38.5125,-27.4125,132.3483,-19.1710,-4.1289,
0.396117,-0.1193,0.0173,1.1475,-0.6916,-2.1628,1.3944,0.0027,0.0036,-0.0013,-8.7563,-38.5125,-27.4125,132.3483,-19.1710,-4.1289,
0.398029,-0.1193,0.0173,1.1475,-0.6916,-2.1628,1.3944,0.0027,0.0036,-0.0013,-8.7563,-38.5125,-27.4125,132.5163,-19.0170,-4.6968,
0.399246,-0.1193,0.0173,1.1475,-0.6916,-2.1628,1.3944,-0.0048,0.0012,0.0044,-8.7563,-38.5125,-27.4125,132.5163,-19.0170,-4.6968,
0.400973,-0.1193,0.0173,1.1475,-0.6916,-2.1628,1.3944,-0.0048,0.0012,0.0044,-9.6375,-38.3438,-27.3375,132.5163,-19.0170,-4.6968,
0.406422,-0.1892,0.0566,1.1238,-0.6916,-2.1628,1.3944,-0.0048,0.0012,0.0044,-9.6375,-38.3438,-27.3375,132.5163,-19.0170,-4.6968,
0.408766,-0.1388,0.0957,1.0688,-0.6916,-2.1628,1.3944,-0.0048,0.0012,0.0044,-9.6375,-38.3438,-27.3375,132.5163,-19.0170,-4.6968,
0.409746,-0.1486,0.1212,0.9814,-0.6916,-2.1628,1.3944,-0.0048,0.0012,0.0044,-9.6375,-38.3438,-27.3375,132.5163,-19.0170,-4.6968,
0.410716,-0.1564,0.1351,0.9388,-0.6916,-2.1628,1.3944,-0.0048,0.0012,0.0044,-9.6375,-38.3438,-27.3375,132.5163,-19.0170,-4.6968,
0.411642,-0.1669,0.1597,1.0358,-0.6916,-2.1628,1.3944,-0.0048,0.0012,0.0044,-9.6375,-38.3438,-27.3375,132.5163,-19.0170,-4.6968,
0.463439,-0.1669,0.1597,1.0358,-0.6916,-2.1628,1.3944,0.0035,0.0014,0.0026,-9.6375,-38.3438,-27.3375,132.5163,-19.0170,-4.6968,
0.466076,-0.1669,0.1597,1.0358,-0.6916,-2.1628,1.3944,0.0035,0.0014,0.0026,-9.6375,-38.3438,-27.3375,132.8284,-18.6970,-5.2910,
0.467836,-0.1669,0.1597,1.0358,-0.8728,-1.4906,1.1936,0.0035,0.0014,0.0026,-9.6375,-38.3438,-27.3375,132.8284,-18.6970,-5.2910,
0.469235,-0.1669,0.1597,1.0358,-0.8728,-1.4906,1.1936,0.0035,0.0014,0.0026,-10.3688,-38.2688,-27.0563,132.8284,-18.6970,-5.2910,
0.504791,-0.1936,0.1685,1.0830,-0.8728,-1.4906,1.1936,0.0035,0.0014,0.0026,-10.3688,-38.2688,-27.0563,132.8284,-18.6970,-5.2910,
0.507803,-0.1687,0.1680,0.9256,-0.8728,-1.4906,1.1936,0.0035,0.0014,0.0026,-10.3688,-38.2688,-27.0563,132.8284,-18.6970,-5.2910,
0.509250,-0.1828,0.1886,0.8477,-0.8728,-1.4906,1.1936,0.0035,0.0014,0.0026,-10.3688,-38.2688,-27.0563,132.8284,-18.6970,-5.2910,
0.510252,-0.2443,0.1981,0.9403,-0.8728,-1.4906,1.1936,0.0035,0.0014,0.0026,-10.3688,-38.2688,-27.0563,132.8284,-18.6970,-5.2910,
0.511207,-0.2483,0.1998,0.9559,-0.8728,-1.4906,1.1936,0.0035,0.0014,0.0026,-10.3688,-38.2688,-27.0563,132.8284,-18.6970,-5.2910,
0.529990,-0.2483,0.1998,0.9559,-0.8728,-1.4906,1.1936,0.0246,0.0148,-0.1064,-10.3688,-38.2688,-27.0563,132.8284,-18.6970,-5.2910,
0.531682,-0.2483,0.1998,0.9559,-1.2496,-1.1430,-0.2606,0.0246,0.0148,-0.1064,-10.3688,-38.2688,-27.0563,132.8284,-18.6970,-5.2910,
0.532788,-0.2483,0.1998,0.9559,-1.2496,-1.1430,-0.2606,0.0246,0.0148,-0.1064,-10.3688,-38.2688,-27.0563,133.1708,-18.3730,-5.8899,
0.537078,-0.2483,0.1998,0.9559,-1.2496,-1.1430,-0.2606,0.0246,0.0148,-0.1064,-11.1000,-38.2875,-26.6625,133.1708,-18.3730,-5.8899,
0.597060,-0.2483,0.1998,0.9559,0.3380,-1.2085,-0.7410,0.0246,0.0148,-0.1064,-11.1000,-38.2875,-26.6625,133.1708,-18.3730,-5.8899,
0.599137,-0.2483,0.1998,0.9559,0.3380,-1.2085,-0.7410,0.0246,0.0148,-0.1064,-11.1000,-38.2875,-26.6625,133.5403,-17.9428,-6.5525,
0.600971,-0.2483,0.1998,0.9559,0.3380,-1.2085,-0.7410,0.0437,0.0096,-0.0644,-11.1000,-38.2875,-26.6625,133.5403,-17.9428,-6.5525,
0.604177,-0.1525,0.1973,0.8954,0.3380,-1.2085,-0.7410,0.0437,0.0096,-0.0644,-11.1000,-38.2875,-26.6625,133.5403,-17.9428,-6.5525,
0.606158,-0.0878,0.1810,0.8570,0.3380,-1.2085,-0.7410,0.0437,0.0096,-0.0644,-11.1000,-38.2875,-26.6625,133.5403,-17.9428,-6.5525,
0.607627,-0.0997,0.1800,0.9430,0.3380,-1.2085,-0.7410,0.0437,0.0096,-0.0644,-11.1000,-38.2875,-26.6625,133.5403,-17.9428,-6.5525,
0.608904,-0.1599,0.1680,1.0434,0.3380,-1.2085,-0.7410,0.0437,0.0096,-0.0644,-11.1000,-38.2875,-26.6625,133.5403,-17.9428,-6.5525,
0.609853,-0.1557,0.1734,1.0702,0.3380,-1.2085,-0.7410,0.0437,0.0096,-0.0644,-11.1000,-38.2875,-26.6625,133.5403,-17.9428,-6.5525,
0.610799,-0.1557,0.1734,1.0702,0.3380,-1.2085,-0.7410,0.0437,0.0096,-0.0644,-11.7000,-38.3438,-26.3063,133.5403,-17.9428,-6.5525,
0.662893,-0.1557,0.1734,1.0702,0.3380,-1.2085,-0.7410,0.0705,0.0059,-0.0175,-11.7000,-38.3438,-26.3063,133.5403,-17.9428,-6.5525,
0.665702,-0.1557,0.1734,1.0702,0.4146,-1.1915,-0.3238,0.0705,0.0059,-0.0175,-11.7000,-38.3438,-26.3063,133.5403,-17.9428,-6.5525,
0.667478,-0.1557,0.1734,1.0702,0.4146,-1.1915,-0.3238,0.0705,0.0059,-0.0175,-11.7000,-38.3438,-26.3063,133.9323,-17.5363,-7.1724,
0.676450,-0.1557,0.1734,1.0702,0.4146,-1.1915,-0.3238,0.0705,0.0059,-0.0175,-12.8438,-38.2688,-25.9313,133.9323,-17.5363,-7.1724,
0.701522,-0.0792,0.1868,0.8968,0.4146,-1.1915,-0.3238,0.0705,0.0059,-0.0175,-12.8438,-38.2688,-25.9313,133.9323,-17.5363,-7.1724,
0.704431,-0.0534,0.2049,0.9168,0.4146,-1.1915,-0.3238,0.0705,0.0059,-0.0175,-12.8438,-38.2688,-25.9313,133.9323,-17.5363,-7.1724,
0.705552,-0.0450,0.2103,0.9562,0.4146,-1.1915,-0.3238,0.0705,0.0059,-0.0175,-12.8438,-38.2688,-25.9313,133.9323,-17.5363,-7.1724,
0.706592,-0.0971,0.2013,0.9784,0.4146,-1.1915,-0.3238,0.0705,0.0059,-0.0175,-12.8438,-38.2688,-25.9313,133.9323,-17.5363,-7.1724,
0.707564,-0.1596,0.2059,1.0060,0.4146,-1.1915,-0.3238,0.0705,0.0059,-0.0175,-12.8438,-38.2688,-25.9313,133.9323,-17.5363,-7.1724,
0.729745,-0.1596,0.2059,1.0060,0.4146,-1.1915,-0.3238,0.0933,-0.0007,0.0148,-12.8438,-38.2688,-25.9313,133.9323,-17.5363,-7.1724,
0.732504,-0.1596,0.2059,1.0060,0.1688,-0.9313,0.4368,0.0933,-0.0007,0.0148,-12.8438,-38.2688,-25.9313,133.9323,-17.5363,-7.1724,
0.733588,-0.1596,0.2059,1.0060,0.1688,-0.9313,0.4368,0.0933,-0.0007,0.0148,-12.8438,-38.2688,-25.9313,134.3434,-17.1942,-7.7272,
0.747294,-0.1596,0.2059,1.0060,0.1688,-0.9313,0.4368,0.0933,-0.0007,0.0148,-13.8000,-38.3250,-25.3500,134.3434,-17.1942,-7.7272,
0.797101,-0.1596,0.2059,1.0060,0.1688,-0.9313,0.4368,0.1087,-0.0131,0.0274,-13.8000,-38.3250,-25.3500,134.3434,-17.1942,-7.7272,
0.799057,-0.1596,0.2059,1.0060,0.2429,-0.2309,0.0966,0.1087,-0.0131,0.0274,-13.8000,-38.3250,-25.3500,134.3434,-17.1942,-7.7272,
0.800616,-0.1596,0.2059,1.0060,0.2429,-0.2309,0.0966,0.1087,-0.0131,0.0274,-13.8000,-38.3250,-25.3500,134.8206,-16.9082,-8.1364,
0.801658,-0.1359,0.2306,0.9782,0.2429,-0.2309,0.0966,0.1087,-0.0131,0.0274,-13.8000,-38.3250,-25.3500,134.8206,-16.9082,-8.1364,
0.802658,-0.1261,0.2563,0.9554,0.2429,-0.2309,0.0966,0.1087,-0.0131,0.0274,-13.8000,-38.3250,-25.3500,134.8206,-16.9082,-8.1364,
0.803604,-0.1256,0.2614,0.9667,0.2429,-0.2309,0.0966,0.1087,-0.0131,0.0274,-13.8000,-38.3250,-25.3500,134.8206,-16.9082,-8.1364,
0.804717,-0.1645,0.2582,1.0072,0.2429,-0.2309,0.0966,0.1087,-0.0131,0.0274,-13.8000,-38.3250,-25.3500,134.8206,-16.9082,-8.1364,
0.805680,-0.2055,0.2404,1.0380,0.2429,-0.2309,0.0966,0.1087,-0.0131,0.0274,-13.8000,-38.3250,-25.3500,134.8206,-16.9082,-8.1364,
0.817209,-0.2055,0.2404,1.0380,0.2429,-0.2309,0.0966,0.1087,-0.0131,0.0274,-14.5688,-38.5688,-24.6188,134.8206,-16.9082,-8.1364,
0.863601,-0.2055,0.2404,1.0380,0.2429,-0.2309,0.0966,0.1213,-0.0272,0.0268,-14.5688,-38.5688,-24.6188,134.8206,-16.9082,-8.1364,
0.865435,-0.2055,0.2404,1.0380,-0.2954,-0.3655,0.6142,0.1213,-0.0272,0.0268,-14.5688,-38.5688,-24.6188,134.8206,-16.9082,-8.1364,
0.866466,-0.2055,0.2404,1.0380,-0.2954,-0.3655,0.6142,0.1213,-0.0272,0.0268,-14.5688,-38.5688,-24.6188,134.8206,-16.9082,-8.1364,
0.889571,-0.2055,0.2404,1.0380,-0.2954,-0.3655,0.6142,0.1213,-0.0272,0.0268,-15.0750,-38.7938,-23.8500,134.8206,-16.9082,-8.1364,
0.898982,-0.1811,0.2445,1.0302,-0.2954,-0.3655,0.6142,0.1213,-0.0272,0.0268,-15.0750,-38.7938,-23.8500,134.8206,-16.9082,-8.1364,
0.905146,-0.1449,0.2482,0.9315,-0.2954,-0.3655,0.6142,0.1213,-0.0272,0.0268,-15.0750,-38.7938,-23.8500,134.8206,-16.9082,-8.1364,
0.910776,-0.1083,0.2174,0.8944,-0.2954,-0.3655,0.6142,0.1213,-0.0272,0.0268,-15.0750,-38.7938,-23.8500,134.8206,-16.9082,-8.1364,
0.914385,-0.0602,0.1886,0.9286,-0.2954,-0.3655,0.6142,0.1213,-0.0272,0.0268,-15.0750,-38.7938,-23.8500,134.8206,-16.9082,-8.1364,
0.917756,0.0163,0.1895,0.9190,-0.2954,-0.3655,0.6142,0.1213,-0.0272,0.0268,-15.0750,-38.7938,-23.8500,134.8206,-16.9082,-8.1364,
0.930326,0.0163,0.1895,0.9190,-0.2954,-0.3655,0.6142,0.1313,-0.0382,0.0193,-15.0750,-38.7938,-23.8500,134.8206,-16.9082,-8.1364,
0.932317,0.0163,0.1895,0.9190,1.4741,-0.8828,-0.2338,0.1313,-0.0382,0.0193,-15.0750,-38.7938,-23.8500,134.8206,-16.9082,-8.1364,
0.933686,0.0163,0.1895,0.9190,1.4741,-0.8828,-0.2338,0.1313,-0.0382,0.0193,-15.0750,-38.7938,-23.8500,136.0254,-16.3729,-8.6208,
0.958567,0.0163,0.1895,0.9190,1.4741,-0.8828,-0.2338,0.1313,-0.0382,0.0193,-15.3000,-39.1125,-23.1375,136.0254,-16.3729,-8.6208,
0.996318,0.0163,0.1895,0.9190,1.9683,-1.2327,-0.2413,0.1313,-0.0382,0.0193,-15.3000,-39.1125,-23.1375,136.0254,-16.3729,-8.6208,
0.999283,0.0163,0.1895,0.9190,1.9683,-1.2327,-0.2413,0.1313,-0.0382,0.0193,-15.3000,-39.1125,-23.1375,136.0254,-16.3729,-8.6208,
1.001455,0.0163,0.1895,0.9190,1.9683,-1.2327,-0.2413,0.1344,-0.0593,0.0038,-15.3000,-39.1125,-23.1375,136.0254,-16.3729,-8.6208,
1.003542,0.0913,0.1637,0.9032,1.9683,-1.2327,-0.2413,0.1344,-0.0593,0.0038,-15.3000,-39.1125,-23.1375,136.0254,-16.3729,-8.6208,
1.005705,0.0986,0.1229,0.9349,1.9683,-1.2327,-0.2413,0.1344,-0.0593,0.0038,-15.3000,-39.1125,-23.1375,136.0254,-16.3729,-8.6208,
1.008267,0.0436,0.1334,0.9308,1.9683,-1.2327,-0.2413,0.1344,-0.0593,0.0038,-15.3000,-39.1125,-23.1375,136.0254,-16.3729,-8.6208,
1.010413,0.0820,0.1842,0.9088,1.9683,-1.2327,-0.2413,0.1344,-0.0593,0.0038,-15.3000,-39.1125,-23.1375,136.0254,-16.3729,-8.6208,
1.012518,0.1492,0.2140,0.7761,1.9683,-1.2327,-0.2413,0.1344,-0.0593,0.0038,-15.3000,-39.1125,-23.1375,136.0254,-16.3729,-8.6208,
1.026684,0.1492,0.2140,0.7761,1.9683,-1.2327,-0.2413,0.1344,-0.0593,0.0038,-15.0750,-39.5438,-22.5938,136.0254,-16.3729,-8.6208,
1.062264,0.1492,0.2140,0.7761,1.9683,-1.2327,-0.2413,0.1311,-0.1109,-0.0248,-15.0750,-39.5438,-22.5938,136.0254,-16.3729,-8.6208,
1.069079,0.1492,0.2140,0.7761,1.3629,-0.5403,-1.5957,0.1311,-0.1109,-0.0248,-15.0750,-39.5438,-22.5938,136.0254,-16.3729,-8.6208,
1.075183,0.1492,0.2140,0.7761,1.3629,-0.5403,-1.5957,0.1311,-0.1109,-0.0248,-15.0750,-39.5438,-22.5938,137.6186,-15.8540,-8.5578,
1.094596,0.1646,0.2443,0.7265,1.3629,-0.5403,-1.5957,0.1311,-0.1109,-0.0248,-15.0750,-39.5438,-22.5938,137.6186,-15.8540,-8.5578,
1.097005,-0.0531,0.2061,0.8296,1.3629,-0.5403,-1.5957,0.1311,-0.1109,-0.0248,-15.0750,-39.5438,-22.5938,137.6186,-15.8540,-8.5578,
1.098622,-0.1102,0.2316,0.9312,1.3629,-0.5403,-1.5957,0.1311,-0.1109,-0.0248,-15.0750,-39.5438,-22.5938,137.6186,-15.8540,-8.5578,
1.100143,-0.1613,0.2829,0.8081,1.3629,-0.5403,-1.5957,0.1311,-0.1109,-0.0248,-15.0750,-39.5438,-22.5938,137.6186,-15.8540,-8.5578,
1.101999,-0.0951,0.3283,0.5531,1.3629,-0.5403,-1.5957,0.1311,-0.1109,-0.0248,-15.0750,-39.5438,-22.5938,137.6186,-15.8540,-8.5578,
1.104001,-0.0951,0.3283,0.5531,1.3629,-0.5403,-1.5957,0.1311,-0.1109,-0.0248,-14.0625,-40.0312,-22.0500,137.6186,-15.8540,-8.5578,
1.129692,-0.0951,0.3283,0.5531,1.3629,-0.5403,-1.5957,0.1287,-0.1781,-0.0664,-14.0625,-40.0312,-22.0500,137.6186,-15.8540,-8.5578,
1.132481,-0.0951,0.3283,0.5531,0.4934,0.6118,-4.3510,0.1287,-0.1781,-0.0664,-14.0625,-40.0312,-22.0500,137.6186,-15.8540,-8.5578,
1.134020,-0.0951,0.3283,0.5531,0.4934,0.6118,-4.3510,0.1287,-0.1781,-0.0664,-14.0625,-40.0312,-22.0500,138.5848,-15.5666,-8.4279,
1.166043,-0.0951,0.3283,0.5531,0.4934,0.6118,-4.3510,0.1287,-0.1781,-0.0664,-12.4875,-40.5000,-21.5813,138.5848,-15.5666,-8.4279,
1.192526,-0.0421,0.3095,0.5597,0.4934,0.6118,-4.3510,0.1287,-0.1781,-0.0664,-12.4875,-40.5000,-21.5813,138.5848,-15.5666,-8.4279,
1.195502,-0.0910,0.3352,0.6757,0.4934,0.6118,-4.3510,0.1287,-0.1781,-0.0664,-12.4875,-40.5000,-21.5813,138.5848,-15.5666,-8.4279,
1.197817,-0.1721,0.2697,0.8333,0.4934,0.6118,-4.3510,0.1287,-0.1781,-0.0664,-12.4875,-40.5000,-21.5813,138.5848,-15.5666,-8.4279,
1.199898,-0.0602,0.1661,0.9684,0.4934,0.6118,-4.3510,0.1287,-0.1781,-0.0664,-12.4875,-40.5000,-21.5813,138.5848,-15.5666,-8.4279,
1.202034,0.0581,0.2477,1.1450,0.4934,0.6118,-4.3510,0.1287,-0.1781,-0.0664,-12.4875,-40.5000,-21.5813,138.5848,-15.5666,-8.4279,
1.204276,0.0581,0.2477,1.1450,0.9399,-0.6261,-0.5022,0.1287,-0.1781,-0.0664,-12.4875,-40.5000,-21.5813,138.5848,-15.5666,-8.4279,
1.206491,0.0581,0.2477,1.1450,0.9399,-0.6261,-0.5022,0.1287,-0.1781,-0.0664,-12.4875,-40.5000,-21.5813,139.7163,-15.2763,-8.1241,
1.208733,0.0581,0.2477,1.1450,0.9399,-0.6261,-0.5022,0.1389,-0.2181,-0.1166,-12.4875,-40.5000,-21.5813,139.7163,-15.2763,-8.1241,
1.237110,0.0581,0.2477,1.1450,0.9399,-0.6261,-0.5022,0.1389,-0.2181,-0.1166,-10.4250,-40.8750,-21.3000,139.7163,-15.2763,-8.1241,
1.262563,0.0581,0.2477,1.1450,0.9399,-0.6261,-0.5022,0.1668,-0.2184,-0.1747,-10.4250,-40.8750,-21.3000,139.7163,-15.2763,-8.1241,
1.268145,0.0581,0.2477,1.1450,0.0359,-0.0975,-0.5355,0.1668,-0.2184,-0.1747,-10.4250,-40.8750,-21.3000,139.7163,-15.2763,-8.1241,
1.274926,0.0581,0.2477,1.1450,0.0359,-0.0975,-0.5355,0.1668,-0.2184,-0.1747,-10.4250,-40.8750,-21.3000,141.0279,-14.9564,-7.7062,
1.292597,-0.1015,0.1409,0.7067,0.0359,-0.0975,-0.5355,0.1668,-0.2184,-0.1747,-10.4250,-40.8750,-21.3000,141.0279,-14.9564,-7.7062,
1.301301,-0.1317,0.2299,0.8533,0.0359,-0.0975,-0.5355,0.1668,-0.2184,-0.1747,-10.4250,-40.8750,-21.3000,141.0279,-14.9564,-7.7062,
1.309848,-0.0995,0.2267,0.9518,0.0359,-0.0975,-0.5355,0.1668,-0.2184,-0.1747,-10.4250,-40.8750,-21.3000,141.0279,-14.9564,-7.7062,
1.314005,0.1353,0.1822,0.8328,0.0359,-0.0975,-0.5355,0.1668,-0.2184,-0.1747,-10.4250,-40.8750,-21.3000,141.0279,-14.9564,-7.7062,
1.318187,0.1345,0.1934,0.6141,0.0359,-0.0975,-0.5355,0.1668,-0.2184,-0.1747,-10.4250,-40.8750,-21.3000,141.0279,-14.9564,-7.7062,
1.323130,0.1345,0.1934,0.6141,0.0359,-0.0975,-0.5355,0.1668,-0.2184,-0.1747,-8.0813,-41.2500,-20.8875,141.0279,-14.9564,-7.7062,
1.331092,0.1345,0.1934,0.6141,0.0359,-0.0975,-0.5355,0.1978,-0.2162,-0.2473,-8.0813,-41.2500,-20.8875,141.0279,-14.9564,-7.7062,
1.333600,0.1345,0.1934,0.6141,0.0359,-0.0975,-0.5355,0.1978,-0.2162,-0.2473,-8.0813,-41.2500,-20.8875,142.4379,-14.6402,-7.4104,
1.335347,0.1345,0.1934,0.6141,0.4789,-0.1096,-2.6386,0.1978,-0.2162,-0.2473,-8.0813,-41.2500,-20.8875,142.4379,-14.6402,-7.4104,
1.377626,0.1345,0.1934,0.6141,0.4789,-0.1096,-2.6386,0.1978,-0.2162,-0.2473,-5.3813,-41.4563,-20.7938,142.4379,-14.6402,-7.4104,
1.390597,-0.1268,0.2465,0.8037,0.4789,-0.1096,-2.6386,0.1978,-0.2162,-0.2473,-5.3813,-41.4563,-20.7938,142.4379,-14.6402,-7.4104,
1.402068,-0.1721,0.2193,1.0715,0.4789,-0.1096,-2.6386,0.1978,-0.2162,-0.2473,-5.3813,-41.4563,-20.7938,142.4379,-14.6402,-7.4104,
1.410558,-0.1017,0.1881,1.0173,0.4789,-0.1096,-2.6386,0.1978,-0.2162,-0.2473,-5.3813,-41.4563,-20.7938,142.4379,-14.6402,-7.4104,
1.412824,-0.0890,0.1217,0.9264,0.4789,-0.1096,-2.6386,0.1978,-0.2162,-0.2473,-5.3813,-41.4563,-20.7938,142.4379,-14.6402,-7.4104,
1.413788,0.0522,0.1988,0.8462,0.4789,-0.1096,-2.6386,0.1978,-0.2162,-0.2473,-5.3813,-41.4563,-20.7938,142.4379,-14.6402,-7.4104,
1.414692,0.0522,0.1988,0.8462,0.4789,-0.1096,-2.6386,0.2047,-0.2443,-0.3422,-5.3813,-41.4563,-20.7938,142.4379,-14.6402,-7.4104,
1.415642,0.0522,0.1988,0.8462,-0.0149,-1.4328,-0.5123,0.2047,-0.2443,-0.3422,-5.3813,-41.4563,-20.7938,142.4379,-14.6402,-7.4104,
1.416747,0.0522,0.1988,0.8462,-0.0149,-1.4328,-0.5123,0.2047,-0.2443,-0.3422,-5.3813,-41.4563,-20.7938,144.0097,-14.3483,-7.0966,
1.447932,0.0522,0.1988,0.8462,-0.0149,-1.4328,-0.5123,0.2047,-0.2443,-0.3422,-2.6250,-41.7000,-20.8875,144.0097,-14.3483,-7.0966,
1.462981,0.0522,0.1988,0.8462,-0.0149,-1.4328,-0.5123,0.1802,-0.2896,-0.4514,-2.6250,-41.7000,-20.8875,144.0097,-14.3483,-7.0966,
1.464881,0.0522,0.1988,0.8462,2.4442,0.6148,-4.3202,0.1802,-0.2896,-0.4514,-2.6250,-41.7000,-20.8875,144.0097,-14.3483,-7.0966,
1.466349,0.0522,0.1988,0.8462,2.4442,0.6148,-4.3202,0.1802,-0.2896,-0.4514,-2.6250,-41.7000,-20.8875,145.7326,-14.1727,-6.6897,
1.487589,0.1570,0.1290,0.8313,2.4442,0.6148,-4.3202,0.1802,-0.2896,-0.4514,-2.6250,-41.7000,-20.8875,145.7326,-14.1727,-6.6897,
1.489593,0.1353,0.1746,0.8788,2.4442,0.6148,-4.3202,0.1802,-0.2896,-0.4514,-2.6250,-41.7000,-20.8875,145.7326,-14.1727,-6.6897,
1.490654,0.2464,0.3019,0.3857,2.4442,0.6148,-4.3202,0.1802,-0.2896,-0.4514,-2.6250,-41.7000,-20.8875,145.7326,-14.1727,-6.6897,
1.491713,0.3634,0.3295,0.0706,2.4442,0.6148,-4.3202,0.1802,-0.2896,-0.4514,-2.6250,-41.7000,-20.8875,145.7326,-14.1727,-6.6897,
1.492802,0.3119,0.4011,0.2056,2.4442,0.6148,-4.3202,0.1802,-0.2896,-0.4514,-2.6250,-41.7000,-20.8875,145.7326,-14.1727,-6.6897,
1.516585,0.3119,0.4011,0.2056,2.4442,0.6148,-4.3202,0.1802,-0.2896,-0.4514,0.7875,-41.6625,-20.9062,145.7326,-14.1727,-6.6897,
1.529327,0.3119,0.4011,0.2056,2.4442,0.6148,-4.3202,0.1539,-0.3359,-0.5557,0.7875,-41.6625,-20.9062,145.7326,-14.1727,-6.6897,
1.531078,0.3119,0.4011,0.2056,3.1131,2.2253,-5.4896,0.1539,-0.3359,-0.5557,0.7875,-41.6625,-20.9062,145.7326,-14.1727,-6.6897,
1.532148,0.3119,0.4011,0.2056,3.1131,2.2253,-5.4896,0.1539,-0.3359,-0.5557,0.7875,-41.6625,-20.9062,147.6160,-14.1485,-6.1741,
1.584968,0.2213,0.4427,0.3872,3.1131,2.2253,-5.4896,0.1539,-0.3359,-0.5557,0.7875,-41.6625,-20.9062,147.6160,-14.1485,-6.1741,
1.588046,0.2642,0.4485,0.3984,3.1131,2.2253,-5.4896,0.1539,-0.3359,-0.5557,0.7875,-41.6625,-20.9062,147.6160,-14.1485,-6.1741,
1.589556,0.2535,0.4360,0.5228,3.1131,2.2253,-5.4896,0.1539,-0.3359,-0.5557,0.7875,-41.6625,-20.9062,147.6160,-14.1485,-6.1741,
1.590530,0.3117,0.2039,0.6682,3.1131,2.2253,-5.4896,0.1539,-0.3359,-0.5557,0.7875,-41.6625,-20.9062,147.6160,-14.1485,-6.1741,
1.591527,0.2665,0.0877,0.8220,3.1131,2.2253,-5.4896,0.1539,-0.3359,-0.5557,0.7875,-41.6625,-20.9062,147.6160,-14.1485,-6.1741,
1.592552,0.2665,0.0877,0.8220,3.1131,2.2253,-5.4896,0.1539,-0.3359,-0.5557,4.0688,-41.4563,-20.8500,147.6160,-14.1485,-6.1741,
1.595504,0.2665,0.0877,0.8220,4.0632,-1.4980,-1.8264,0.1539,-0.3359,-0.5557,4.0688,-41.4563,-20.8500,147.6160,-14.1485,-6.1741,
1.596942,0.2665,0.0877,0.8220,4.0632,-1.4980,-1.8264,0.1539,-0.3359,-0.5557,4.0688,-41.4563,-20.8500,149.6898,-14.1228,-5.6795,
1.598087,0.2665,0.0877,0.8220,4.0632,-1.4980,-1.8264,0.1590,-0.3974,-0.6485,4.0688,-41.4563,-20.8500,149.6898,-14.1228,-5.6795,
1.656827,0.2665,0.0877,0.8220,4.0632,-1.4980,-1.8264,0.1590,-0.3974,-0.6485,6.5438,-41.3813,-20.1938,149.6898,-14.1228,-5.6795,
1.662943,0.2665,0.0877,0.8220,2.0636,-1.0008,1.0361,0.1590,-0.3974,-0.6485,6.5438,-41.3813,-20.1938,149.6898,-14.1228,-5.6795,
1.664768,0.2665,0.0877,0.8220,2.0636,-1.0008,1.0361,0.1590,-0.3974,-0.6485,6.5438,-41.3813,-20.1938,151.9630,-14.0577,-5.1849,
1.666542,0.2665,0.0877,0.8220,2.0636,-1.0008,1.0361,0.1778,-0.4780,-0.7380,6.5438,-41.3813,-20.1938,151.9630,-14.0577,-5.1849,
1.684645,0.1969,0.1834,0.7370,2.0636,-1.0008,1.0361,0.1778,-0.4780,-0.7380,6.5438,-41.3813,-20.1938,151.9630,-14.0577,-5.1849,
1.686427,0.2668,0.3280,0.4917,2.0636,-1.0008,1.0361,0.1778,-0.4780,-0.7380,6.5438,-41.3813,-20.1938,151.9630,-14.0577,-5.1849,
1.687476,0.1560,0.2017,0.9112,2.0636,-1.0008,1.0361,0.1778,-0.4780,-0.7380,6.5438,-41.3813,-20.1938,151.9630,-14.0577,-5.1849,
1.688577,0.0598,0.0082,1.3515,2.0636,-1.0008,1.0361,0.1778,-0.4780,-0.7380,6.5438,-41.3813,-20.1938,151.9630,-14.0577,-5.1849,
1.689558,0.0229,0.1534,1.3092,2.0636,-1.0008,1.0361,0.1778,-0.4780,-0.7380,6.5438,-41.3813,-20.1938,151.9630,-14.0577,-5.1849,
1.726195,0.0229,0.1534,1.3092,2.0636,-1.0008,1.0361,0.1778,-0.4780,-0.7380,8.2313,-41.6625,-18.5813,151.9630,-14.0577,-5.1849,
1.729328,0.0229,0.1534,1.3092,2.0636,-1.0008,1.0361,0.1492,-0.5343,-0.8159,8.2313,-41.6625,-18.5813,151.9630,-14.0577,-5.1849,
1.730687,0.0229,0.1534,1.3092,0.8237,2.9923,1.3889,0.1492,-0.5343,-0.8159,8.2313,-41.6625,-18.5813,151.9630,-14.0577,-5.1849,
1.732019,0.0229,0.1534,1.3092,0.8237,2.9923,1.3889,0.1492,-0.5343,-0.8159,8.2313,-41.6625,-18.5813,154.3809,-14.1058,-4.5971,
1.782440,-0.0164,0.4834,1.0749,0.8237,2.9923,1.3889,0.1492,-0.5343,-0.8159,8.2313,-41.6625,-18.5813,154.3809,-14.1058,-4.5971,
1.784530,0.0229,0.5264,1.1699,0.8237,2.9923,1.3889,0.1492,-0.5343,-0.8159,8.2313,-41.6625,-18.5813,154.3809,-14.1058,-4.5971,
1.785561,0.1842,0.4693,1.2929,0.8237,2.9923,1.3889,0.1492,-0.5343,-0.8159,8.2313,-41.6625,-18.5813,154.3809,-14.1058,-4.5971,
1.786614,0.1538,0.6547,1.2261,0.8237,2.9923,1.3889,0.1492,-0.5343,-0.8159,8.2313,-41.6625,-18.5813,154.3809,-14.1058,-4.5971,
1.787671,0.1790,0.8875,1.0405,0.8237,2.9923,1.3889,0.1492,-0.5343,-0.8159,8.2313,-41.6625,-18.5813,154.3809,-14.1058,-4.5971,
1.797004,0.1790,0.8875,1.0405,0.8237,2.9923,1.3889,0.0724,-0.5083,-0.8380,8.2313,-41.6625,-18.5813,154.3809,-14.1058,-4.5971,
1.798648,0.1790,0.8875,1.0405,0.8237,2.9923,1.3889,0.0724,-0.5083,-0.8380,8.2313,-41.6625,-18.5813,156.8708,-14.3614,-3.9375,
1.799670,0.1790,0.8875,1.0405,2.5690,6.5344,0.5248,0.0724,-0.5083,-0.8380,8.2313,-41.6625,-18.5813,156.8708,-14.3614,-3.9375,
1.800808,0.1790,0.8875,1.0405,2.5690,6.5344,0.5248,0.0724,-0.5083,-0.8380,9.0375,-42.2438,-16.2563,156.8708,-14.3614,-3.9375,
1.862304,0.1790,0.8875,1.0405,2.5690,6.5344,0.5248,0.0556,-0.4214,-0.7782,9.0375,-42.2438,-16.2563,156.8708,-14.3614,-3.9375,
1.864374,0.1790,0.8875,1.0405,4.5016,7.3638,1.3635,0.0556,-0.4214,-0.7782,9.0375,-42.2438,-16.2563,156.8708,-14.3614,-3.9375,
1.865711,0.1790,0.8875,1.0405,4.5016,7.3638,1.3635,0.0556,-0.4214,-0.7782,9.0375,-42.2438,-16.2563,159.4376,-14.7777,-3.1974,
1.867125,0.1790,0.8875,1.0405,4.5016,7.3638,1.3635,0.0556,-0.4214,-0.7782,9.1500,-42.6938,-14.0063,159.4376,-14.7777,-3.1974,
1.880017,0.2953,0.8917,1.1247,4.5016,7.3638,1.3635,0.0556,-0.4214,-0.7782,9.1500,-42.6938,-14.0063,159.4376,-14.7777,-3.1974,
1.881761,0.3053,0.8489,1.3207,4.5016,7.3638,1.3635,0.0556,-0.4214,-0.7782,9.1500,-42.6938,-14.0063,159.4376,-14.7777,-3.1974,
1.882807,0.3556,0.9195,1.2557,4.5016,7.3638,1.3635,0.0556,-0.4214,-0.7782,9.1500,-42.6938,-14.0063,159.4376,-14.7777,-3.1974,
1.883869,0.4346,1.0351,1.0324,4.5016,7.3638,1.3635,0.0556,-0.4214,-0.7782,9.1500,-42.6938,-14.0063,159.4376,-14.7777,-3.1974,
1.884910,0.4770,1.0365,1.0619,4.5016,7.3638,1.3635,0.0556,-0.4214,-0.7782,9.1500,-42.6938,-14.0063,159.4376,-14.7777,-3.1974,
1.929384,0.4770,1.0365,1.0619,4.5016,7.3638,1.3635,0.1843,-0.3688,-0.6707,9.1500,-42.6938,-14.0063,159.4376,-14.7777,-3.1974,
1.932445,0.4770,1.0365,1.0619,4.5016,7.3638,1.3635,0.1843,-0.3688,-0.6707,9.1500,-42.6938,-14.0063,162.0303,-15.2815,-2.3894,
1.933725,0.4770,1.0365,1.0619,4.5359,6.9533,1.2069,0.1843,-0.3688,-0.6707,9.1500,-42.6938,-14.0063,162.0303,-15.2815,-2.3894,
1.935888,0.4770,1.0365,1.0619,4.5359,6.9533,1.2069,0.1843,-0.3688,-0.6707,8.7000,-43.3125,-11.4750,162.0303,-15.2815,-2.3894,
1.979372,0.4832,0.9173,1.1849,4.5359,6.9533,1.2069,0.1843,-0.3688,-0.6707,8.7000,-43.3125,-11.4750,162.0303,-15.2815,-2.3894,
1.982518,0.4614,0.9459,1.0742,4.5359,6.9533,1.2069,0.1843,-0.3688,-0.6707,8.7000,-43.3125,-11.4750,162.0303,-15.2815,-2.3894,
1.984715,0.4874,1.0065,0.9872,4.5359,6.9533,1.2069,0.1843,-0.3688,-0.6707,8.7000,-43.3125,-11.4750,162.0303,-15.2815,-2.3894,
1.985706,0.5796,1.0602,0.7441,4.5359,6.9533,1.2069,0.1843,-0.3688,-0.6707,8.7000,-43.3125,-11.4750,162.0303,-15.2815,-2.3894,
1.986702,0.5237,0.9953,0.8596,4.5359,6.9533,1.2069,0.1843,-0.3688,-0.6707,8.7000,-43.3125,-11.4750,162.0303,-15.2815,-2.3894,
1.997597,0.5237,0.9953,0.8596,4.5359,6.9533,1.2069,0.4022,-0.4008,-0.5589,8.7000,-43.3125,-11.4750,162.0303,-15.2815,-2.3894,
2.000497,0.5237,0.9953,0.8596,4.5359,6.9533,1.2069,0.4022,-0.4008,-0.5589,8.7000,-43.3125,-11.4750,164.5892,-15.9822,-1.4784,
2.001641,0.5237,0.9953,0.8596,5.0695,6.1421,0.4632,0.4022,-0.4008,-0.5589,8.7000,-43.3125,-11.4750,164.5892,-15.9822,-1.4784,
2.006247,0.5237,0.9953,0.8596,5.0695,6.1421,0.4632,0.4022,-0.4008,-0.5589,8.0625,-43.8938,-9.0938,164.5892,-15.9822,-1.4784,
2.062962,0.5237,0.9953,0.8596,5.0695,6.1421,0.4632,0.5800,-0.4777,-0.4557,8.0625,-43.8938,-9.0938,164.5892,-15.9822,-1.4784,
2.065960,0.5237,0.9953,0.8596,5.6152,7.5071,-4.1849,0.5800,-0.4777,-0.4557,8.0625,-43.8938,-9.0938,164.5892,-15.9822,-1.4784,
2.067740,0.5237,0.9953,0.8596,5.6152,7.5071,-4.1849,0.5800,-0.4777,-0.4557,8.0625,-43.8938,-9.0938,167.1397,-17.0551,-0.4136,
2.076774,0.4905,0.8902,1.0370,5.6152,7.5071,-4.1849,0.5800,-0.4777,-0.4557,8.0625,-43.8938,-9.0938,167.1397,-17.0551,-0.4136,
2.078561,0.5135,0.9049,0.9227,5.6152,7.5071,-4.1849,0.5800,-0.4777,-0.4557,8.0625,-43.8938,-9.0938,167.1397,-17.0551,-0.4136,
2.079562,0.4798,0.9071,0.7810,5.6152,7.5071,-4.1849,0.5800,-0.4777,-0.4557,8.0625,-43.8938,-9.0938,167.1397,-17.0551,-0.4136,
2.080697,0.4915,1.0634,0.6139,5.6152,7.5071,-4.1849,0.5800,-0.4777,-0.4557,8.0625,-43.8938,-9.0938,167.1397,-17.0551,-0.4136,
2.081680,0.6193,0.5848,0.8829,5.6152,7.5071,-4.1849,0.5800,-0.4777,-0.4557,8.0625,-43.8938,-9.0938,167.1397,-17.0551,-0.4136,
2.082641,0.6193,0.5848,0.8829,5.6152,7.5071,-4.1849,0.5800,-0.4777,-0.4557,7.0875,-44.6438,-7.1625,167.1397,-17.0551,-0.4136,
2.129119,0.6193,0.5848,0.8829,4.3271,3.7519,-1.0839,0.5800,-0.4777,-0.4557,7.0875,-44.6438,-7.1625,167.1397,-17.0551,-0.4136,
2.132342,0.6193,0.5848,0.8829,4.3271,3.7519,-1.0839,0.6498,-0.5336,-0.3602,7.0875,-44.6438,-7.1625,167.1397,-17.0551,-0.4136,
2.133605,0.6193,0.5848,0.8829,4.3271,3.7519,-1.0839,0.6498,-0.5336,-0.3602,7.0875,-44.6438,-7.1625,169.6753,-18.2969,0.7894,
2.145819,0.6193,0.5848,0.8829,4.3271,3.7519,-1.0839,0.6498,-0.5336,-0.3602,5.8125,-45.3750,-5.7750,169.6753,-18.2969,0.7894,
2.173901,0.6914,0.5927,0.5956,4.3271,3.7519,-1.0839,0.6498,-0.5336,-0.3602,5.8125,-45.3750,-5.7750,169.6753,-18.2969,0.7894,
2.175368,0.4612,0.7043,0.7407,4.3271,3.7519,-1.0839,0.6498,-0.5336,-0.3602,5.8125,-45.3750,-5.7750,169.6753,-18.2969,0.7894,
2.176411,0.4106,0.6887,0.9112,4.3271,3.7519,-1.0839,0.6498,-0.5336,-0.3602,5.8125,-45.3750,-5.7750,169.6753,-18.2969,0.7894,
2.177358,0.4065,0.6760,0.7991,4.3271,3.7519,-1.0839,0.6498,-0.5336,-0.3602,5.8125,-45.3750,-5.7750,169.6753,-18.2969,0.7894,
2.178334,0.3588,0.6403,0.8052,4.3271,3.7519,-1.0839,0.6498,-0.5336,-0.3602,5.8125,-45.3750,-5.7750,169.6753,-18.2969,0.7894,
2.195574,0.3588,0.6403,0.8052,2.1361,2.2784,0.6242,0.6498,-0.5336,-0.3602,5.8125,-45.3750,-5.7750,169.6753,-18.2969,0.7894,
2.197444,0.3588,0.6403,0.8052,2.1361,2.2784,0.6242,0.6498,-0.5336,-0.3602,5.8125,-45.3750,-5.7750,172.0807,-19.4817,2.0084,
2.198464,0.3588,0.6403,0.8052,2.1361,2.2784,0.6242,0.6236,-0.5450,-0.2789,5.8125,-45.3750,-5.7750,172.0807,-19.4817,2.0084,
2.216360,0.3588,0.6403,0.8052,2.1361,2.2784,0.6242,0.6236,-0.5450,-0.2789,4.9313,-45.7125,-5.4000,172.0807,-19.4817,2.0084,
2.262774,0.3588,0.6403,0.8052,2.1361,2.2784,0.6242,0.5281,-0.5220,-0.2212,4.9313,-45.7125,-5.4000,172.0807,-19.4817,2.0084,
2.264878,0.3588,0.6403,0.8052,1.9269,2.1058,0.6973,0.5281,-0.5220,-0.2212,4.9313,-45.7125,-5.4000,172.0807,-19.4817,2.0084,
2.266219,0.3588,0.6403,0.8052,1.9269,2.1058,0.6973,0.5281,-0.5220,-0.2212,4.9313,-45.7125,-5.4000,174.3624,-20.5768,3.2319,
2.272184,0.2557,0.5927,0.9840,1.9269,2.1058,0.6973,0.5281,-0.5220,-0.2212,4.9313,-45.7125,-5.4000,174.3624,-20.5768,3.2319,
2.274188,0.3705,0.5135,0.7888,1.9269,2.1058,0.6973,0.5281,-0.5220,-0.2212,4.9313,-45.7125,-5.4000,174.3624,-20.5768,3.2319,
2.275588,0.2865,0.4786,0.8822,1.9269,2.1058,0.6973,0.5281,-0.5220,-0.2212,4.9313,-45.7125,-5.4000,174.3624,-20.5768,3.2319,
2.276939,0.3246,0.4075,0.9212,1.9269,2.1058,0.6973,0.5281,-0.5220,-0.2212,4.9313,-45.7125,-5.4000,174.3624,-20.5768,3.2319,
2.277930,0.2992,0.3806,0.9862,1.9269,2.1058,0.6973,0.5281,-0.5220,-0.2212,4.9313,-45.7125,-5.4000,174.3624,-20.5768,3.2319,
2.285589,0.2992,0.3806,0.9862,1.9269,2.1058,0.6973,0.5281,-0.5220,-0.2212,4.4813,-45.6938,-5.9813,174.3624,-20.5768,3.2319,
2.329610,0.2992,0.3806,0.9862,1.9269,2.1058,0.6973,0.3886,-0.4736,-0.1865,4.4813,-45.6938,-5.9813,174.3624,-20.5768,3.2319,
2.332701,0.2992,0.3806,0.9862,2.4816,-0.0435,0.1321,0.3886,-0.4736,-0.1865,4.4813,-45.6938,-5.9813,174.3624,-20.5768,3.2319,
2.333833,0.2992,0.3806,0.9862,2.4816,-0.0435,0.1321,0.3886,-0.4736,-0.1865,4.4813,-45.6938,-5.9813,176.5394,-21.6863,4.4423,
2.355956,0.2992,0.3806,0.9862,2.4816,-0.0435,0.1321,0.3886,-0.4736,-0.1865,4.4250,-45.5813,-7.0500,176.5394,-21.6863,4.4423,
2.374150,0.2384,0.5494,0.9102,2.4816,-0.0435,0.1321,0.3886,-0.4736,-0.1865,4.4250,-45.5813,-7.0500,176.5394,-21.6863,4.4423,
2.376670,0.3095,0.7238,0.6762,2.4816,-0.0435,0.1321,0.3886,-0.4736,-0.1865,4.4250,-45.5813,-7.0500,176.5394,-21.6863,4.4423,
2.378459,0.3972,0.5905,0.6667,2.4816,-0.0435,0.1321,0.3886,-0.4736,-0.1865,4.4250,-45.5813,-7.0500,176.5394,-21.6863,4.4423,
2.379791,0.4558,0.5372,0.6518,2.4816,-0.0435,0.1321,0.3886,-0.4736,-0.1865,4.4250,-45.5813,-7.0500,176.5394,-21.6863,4.4423,
2.381242,0.4939,0.4551,0.7837,2.4816,-0.0435,0.1321,0.3886,-0.4736,-0.1865,4.4250,-45.5813,-7.0500,176.5394,-21.6863,4.4423,
2.397390,0.4939,0.4551,0.7837,3.2264,1.8949,-3.1272,0.3886,-0.4736,-0.1865,4.4250,-45.5813,-7.0500,176.5394,-21.6863,4.4423,
2.399155,0.4939,0.4551,0.7837,3.2264,1.8949,-3.1272,0.2460,-0.4091,-0.1672,4.4250,-45.5813,-7.0500,176.5394,-21.6863,4.4423,
2.400170,0.4939,0.4551,0.7837,3.2264,1.8949,-3.1272,0.2460,-0.4091,-0.1672,4.4250,-45.5813,-7.0500,178.6124,-22.7959,5.6065,
2.426731,0.4939,0.4551,0.7837,3.2264,1.8949,-3.1272,0.2460,-0.4091,-0.1672,4.5938,-45.4875,-8.2688,178.6124,-22.7959,5.6065,
2.462909,0.4939,0.4551,0.7837,3.2264,1.8949,-3.1272,0.1444,-0.3498,-0.1576,4.5938,-45.4875,-8.2688,178.6124,-22.7959,5.6065,
2.471785,0.4939,0.4551,0.7837,1.9029,2.1860,-0.5331,0.1444,-0.3498,-0.1576,4.5938,-45.4875,-8.2688,178.6124,-22.7959,5.6065,
2.479542,0.4939,0.4551,0.7837,1.9029,2.1860,-0.5331,0.1444,-0.3498,-0.1576,4.5938,-45.4875,-8.2688,180.5669,-23.7738,6.7434,
2.484689,0.3872,0.5675,0.8269,1.9029,2.1860,-0.5331,0.1444,-0.3498,-0.1576,4.5938,-45.4875,-8.2688,180.5669,-23.7738,6.7434,
2.491430,0.3156,0.6251,0.8617,1.9029,2.1860,-0.5331,0.1444,-0.3498,-0.1576,4.5938,-45.4875,-8.2688,180.5669,-23.7738,6.7434,
2.496086,0.4084,0.5966,0.8491,1.9029,2.1860,-0.5331,0.1444,-0.3498,-0.1576,4.5938,-45.4875,-8.2688,180.5669,-23.7738,6.7434,
2.501784,0.4504,0.5843,0.8054,1.9029,2.1860,-0.5331,0.1444,-0.3498,-0.1576,4.5938,-45.4875,-8.2688,180.5669,-23.7738,6.7434,
2.504186,0.5062,0.5770,0.7524,1.9029,2.1860,-0.5331,0.1444,-0.3498,-0.1576,4.5938,-45.4875,-8.2688,180.5669,-23.7738,6.7434,
2.505993,0.5062,0.5770,0.7524,1.9029,2.1860,-0.5331,0.1444,-0.3498,-0.1576,4.8375,-45.2812,-9.6375,180.5669,-23.7738,6.7434,
2.530100,0.5062,0.5770,0.7524,1.9029,2.1860,-0.5331,0.1444,-0.3498,-0.1576,4.8375,-45.2812,-9.6375,182.4554,-24.5925,7.8410,
2.538377,0.5062,0.5770,0.7524,3.6463,1.4609,-1.3881,0.1444,-0.3498,-0.1576,4.8375,-45.2812,-9.6375,182.4554,-24.5925,7.8410,
2.545230,0.5062,0.5770,0.7524,3.6463,1.4609,-1.3881,0.0947,-0.3160,-0.1525,4.8375,-45.2812,-9.6375,182.4554,-24.5925,7.8410,
2.567633,0.5062,0.5770,0.7524,3.6463,1.4609,-1.3881,0.0947,-0.3160,-0.1525,5.1188,-45.0000,-10.8563,182.4554,-24.5925,7.8410,
2.576675,0.5152,0.5010,0.8245,3.6463,1.4609,-1.3881,0.0947,-0.3160,-0.1525,5.1188,-45.0000,-10.8563,182.4554,-24.5925,7.8410,
2.580974,0.4871,0.4319,0.8785,3.6463,1.4609,-1.3881,0.0947,-0.3160,-0.1525,5.1188,-45.0000,-10.8563,182.4554,-24.5925,7.8410,
2.585147,0.4546,0.4114,0.8905,3.6463,1.4609,-1.3881,0.0947,-0.3160,-0.1525,5.1188,-45.0000,-10.8563,182.4554,-24.5925,7.8410,
2.592514,0.4153,0.4277,0.9000,3.6463,1.4609,-1.3881,0.0947,-0.3160,-0.1525,5.1188,-45.0000,-10.8563,182.4554,-24.5925,7.8410,
2.598132,0.3595,0.4549,0.8807,3.6463,1.4609,-1.3881,0.0947,-0.3160,-0.1525,5.1188,-45.0000,-10.8563,182.4554,-24.5925,7.8410,
2.602514,0.3595,0.4549,0.8807,3.6463,1.4609,-1.3881,0.0947,-0.3160,-0.1525,5.1188,-45.0000,-10.8563,184.4291,-25.4305,8.9538,
2.604387,0.3595,0.4549,0.8807,2.5911,0.0033,0.1384,0.0947,-0.3160,-0.1525,5.1188,-45.0000,-10.8563,184.4291,-25.4305,8.9538,
2.606064,0.3595,0.4549,0.8807,2.5911,0.0033,0.1384,0.0693,-0.3067,-0.1424,5.1188,-45.0000,-10.8563,184.4291,-25.4305,8.9538,
2.636402,0.3595,0.4549,0.8807,2.5911,0.0033,0.1384,0.0693,-0.3067,-0.1424,5.2313,-44.9062,-11.6625,184.4291,-25.4305,8.9538,
2.662466,0.3595,0.4549,0.8807,2.5911,0.0033,0.1384,0.0391,-0.2982,-0.1203,5.2313,-44.9062,-11.6625,184.4291,-25.4305,8.9538,
2.665351,0.3595,0.4549,0.8807,1.7615,0.3975,-0.5583,0.0391,-0.2982,-0.1203,5.2313,-44.9062,-11.6625,184.4291,-25.4305,8.9538,
2.667594,0.3595,0.4549,0.8807,1.7615,0.3975,-0.5583,0.0391,-0.2982,-0.1203,5.2313,-44.9062,-11.6625,186.3588,-26.2260,9.9536,
2.669936,0.3212,0.4866,0.8469,1.7615,0.3975,-0.5583,0.0391,-0.2982,-0.1203,5.2313,-44.9062,-11.6625,186.3588,-26.2260,9.9536,
2.672172,0.3444,0.4822,0.8191,1.7615,0.3975,-0.5583,0.0391,-0.2982,-0.1203,5.2313,-44.9062,-11.6625,186.3588,-26.2260,9.9536,
2.674604,0.3266,0.4639,0.8069,1.7615,0.3975,-0.5583,0.0391,-0.2982,-0.1203,5.2313,-44.9062,-11.6625,186.3588,-26.2260,9.9536,
2.676768,0.2961,0.4595,0.7595,1.7615,0.3975,-0.5583,0.0391,-0.2982,-0.1203,5.2313,-44.9062,-11.6625,186.3588,-26.2260,9.9536,
2.678870,0.2714,0.4583,0.7199,1.7615,0.3975,-0.5583,0.0391,-0.2982,-0.1203,5.2313,-44.9062,-11.6625,186.3588,-26.2260,9.9536,
2.705781,0.2714,0.4583,0.7199,1.7615,0.3975,-0.5583,0.0391,-0.2982,-0.1203,5.2875,-44.7750,-12.2250,186.3588,-26.2260,9.9536,
2.729958,0.2714,0.4583,0.7199,1.7615,0.3975,-0.5583,0.0391,-0.2982,-0.1203,5.2875,-44.7750,-12.2250,188.2368,-26.9143,10.8906,
2.735640,0.2714,0.4583,0.7199,0.9765,-0.0188,-1.6968,0.0391,-0.2982,-0.1203,5.2875,-44.7750,-12.2250,188.2368,-26.9143,10.8906,
2.741445,0.2714,0.4583,0.7199,0.9765,-0.0188,-1.6968,0.0029,-0.2647,-0.0905,5.2875,-44.7750,-12.2250,188.2368,-26.9143,10.8906,
2.764895,0.2895,0.4370,0.7094,0.9765,-0.0188,-1.6968,0.0029,-0.2647,-0.0905,5.2875,-44.7750,-12.2250,188.2368,-26.9143,10.8906,
2.772187,0.2819,0.4226,0.7539,0.9765,-0.0188,-1.6968,0.0029,-0.2647,-0.0905,5.2875,-44.7750,-12.2250,188.2368,-26.9143,10.8906,
2.779346,0.2692,0.4705,0.7632,0.9765,-0.0188,-1.6968,0.0029,-0.2647,-0.0905,5.2875,-44.7750,-12.2250,188.2368,-26.9143,10.8906,
2.783957,0.3273,0.5232,0.7126,0.9765,-0.0188,-1.6968,0.0029,-0.2647,-0.0905,5.2875,-44.7750,-12.2250,188.2368,-26.9143,10.8906,
2.788727,0.3676,0.5751,0.7041,0.9765,-0.0188,-1.6968,0.0029,-0.2647,-0.0905,5.2875,-44.7750,-12.2250,188.2368,-26.9143,10.8906,
2.793996,0.3676,0.5751,0.7041,0.9765,-0.0188,-1.6968,0.0029,-0.2647,-0.0905,5.1000,-44.7938,-12.4875,188.2368,-26.9143,10.8906,
2.798414,0.3676,0.5751,0.7041,1.4699,0.8195,-1.6780,0.0029,-0.2647,-0.0905,5.1000,-44.7938,-12.4875,188.2368,-26.9143,10.8906,
2.803052,0.3676,0.5751,0.7041,1.4699,0.8195,-1.6780,-0.0200,-0.2047,-0.0663,5.1000,-44.7938,-12.4875,188.2368,-26.9143,10.8906,
2.804943,0.3676,0.5751,0.7041,1.4699,0.8195,-1.6780,-0.0200,-0.2047,-0.0663,5.1000,-44.7938,-12.4875,190.1316,-27.5905,11.8601,
2.847280,0.3676,0.5751,0.7041,1.4699,0.8195,-1.6780,-0.0200,-0.2047,-0.0663,4.8375,-44.8688,-12.7125,190.1316,-27.5905,11.8601,
2.863322,0.3720,0.5990,0.6931,1.4699,0.8195,-1.6780,-0.0200,-0.2047,-0.0663,4.8375,-44.8688,-12.7125,190.1316,-27.5905,11.8601,
2.871760,0.3882,0.5450,0.7348,1.4699,0.8195,-1.6780,-0.0200,-0.2047,-0.0663,4.8375,-44.8688,-12.7125,190.1316,-27.5905,11.8601,
2.879477,0.3933,0.4961,0.8030,1.4699,0.8195,-1.6780,-0.0200,-0.2047,-0.0663,4.8375,-44.8688,-12.7125,190.1316,-27.5905,11.8601,
2.884089,0.3850,0.5054,0.8101,1.4699,0.8195,-1.6780,-0.0200,-0.2047,-0.0663,4.8375,-44.8688,-12.7125,190.1316,-27.5905,11.8601,
2.889154,0.4023,0.5254,0.7546,1.4699,0.8195,-1.6780,-0.0200,-0.2047,-0.0663,4.8375,-44.8688,-12.7125,190.1316,-27.5905,11.8601,
2.893755,0.4023,0.5254,0.7546,1.4699,0.8195,-1.6780,-0.0202,-0.1492,-0.0569,4.8375,-44.8688,-12.7125,190.1316,-27.5905,11.8601,
2.899847,0.4023,0.5254,0.7546,1.7034,0.4071,-0.7393,-0.0202,-0.1492,-0.0569,4.8375,-44.8688,-12.7125,190.1316,-27.5905,11.8601,
2.903960,0.4023,0.5254,0.7546,1.7034,0.4071,-0.7393,-0.0202,-0.1492,-0.0569,4.8375,-44.8688,-12.7125,191.9724,-28.2519,12.7828,
2.917159,0.4023,0.5254,0.7546,1.7034,0.4071,-0.7393,-0.0202,-0.1492,-0.0569,4.7625,-44.7188,-13.1063,191.9724,-28.2519,12.7828,
2.930359,0.4023,0.5254,0.7546,1.7034,0.4071,-0.7393,-0.0070,-0.1320,-0.0588,4.7625,-44.7188,-13.1063,191.9724,-28.2519,12.7828,
2.939227,0.4023,0.5254,0.7546,1.1042,-0.5847,0.1258,-0.0070,-0.1320,-0.0588,4.7625,-44.7188,-13.1063,191.9724,-28.2519,12.7828,
2.945156,0.4023,0.5254,0.7546,1.1042,-0.5847,0.1258,-0.0070,-0.1320,-0.0588,4.7625,-44.7188,-13.1063,193.7588,-28.9529,13.6201,
2.960121,0.3799,0.4468,0.8201,1.1042,-0.5847,0.1258,-0.0070,-0.1320,-0.0588,4.7625,-44.7188,-13.1063,193.7588,-28.9529,13.6201,
2.963321,0.3950,0.3435,0.8700,1.1042,-0.5847,0.1258,-0.0070,-0.1320,-0.0588,4.7625,-44.7188,-13.1063,193.7588,-28.9529,13.6201,
2.965481,0.4111,0.3789,0.8091,1.1042,-0.5847,0.1258,-0.0070,-0.1320,-0.0588,4.7625,-44.7188,-13.1063,193.7588,-28.9529,13.6201,
2.967637,0.3728,0.4541,0.8076,1.1042,-0.5847,0.1258,-0.0070,-0.1320,-0.0588,4.7625,-44.7188,-13.1063,193.7588,-28.9529,13.6201,
2.969804,0.3400,0.4624,0.8108,1.1042,-0.5847,0.1258,-0.0070,-0.1320,-0.0588,4.7625,-44.7188,-13.1063,193.7588,-28.9529,13.6201,
2.986624,0.3400,0.4624,0.8108,1.1042,-0.5847,0.1258,-0.0070,-0.1320,-0.0588,5.0063,-44.6625,-13.3688,193.7588,-28.9529,13.6201,
2.996095,0.3400,0.4624,0.8108,1.1042,-0.5847,0.1258,0.0039,-0.1522,-0.0630,5.0063,-44.6625,-13.3688,193.7588,-28.9529,13.6201,
2.999148,0.3400,0.4624,0.8108,0.8999,-0.2339,-0.2778,0.0039,-0.1522,-0.0630,5.0063,-44.6625,-13.3688,193.7588,-28.9529,13.6201,
3.001536,0.3400,0.4624,0.8108,0.8999,-0.2339,-0.2778,0.0039,-0.1522,-0.0630,5.0063,-44.6625,-13.3688,195.4161,-29.6345,14.3026,
3.055998,0.3400,0.4624,0.8108,0.8999,-0.2339,-0.2778,0.0039,-0.1522,-0.0630,5.1938,-44.6813,-13.5563,195.4161,-29.6345,14.3026,
3.059123,0.3510,0.4874,0.7967,0.8999,-0.2339,-0.2778,0.0039,-0.1522,-0.0630,5.1938,-44.6813,-13.5563,195.4161,-29.6345,14.3026,
3.061336,0.2557,0.6051,0.7764,0.8999,-0.2339,-0.2778,0.0039,-0.1522,-0.0630,5.1938,-44.6813,-13.5563,195.4161,-29.6345,14.3026,
3.063540,0.3755,0.6425,0.7226,0.8999,-0.2339,-0.2778,0.0039,-0.1522,-0.0630,5.1938,-44.6813,-13.5563,195.4161,-29.6345,14.3026,
3.065757,0.4114,0.6831,0.6376,0.8999,-0.2339,-0.2778,0.0039,-0.1522,-0.0630,5.1938,-44.6813,-13.5563,195.4161,-29.6345,14.3026,
3.067883,0.4167,0.7630,0.6022,0.8999,-0.2339,-0.2778,0.0039,-0.1522,-0.0630,5.1938,-44.6813,-13.5563,195.4161,-29.6345,14.3026,
3.070096,0.4167,0.7630,0.6022,0.8999,-0.2339,-0.2778,0.0076,-0.1823,-0.0674,5.1938,-44.6813,-13.5563,195.4161,-29.6345,14.3026,
3.072291,0.4167,0.7630,0.6022,1.2420,1.5920,-1.1173,0.0076,-0.1823,-0.0674,5.1938,-44.6813,-13.5563,195.4161,-29.6345,14.3026,
3.074495,0.4167,0.7630,0.6022,1.2420,1.5920,-1.1173,0.0076,-0.1823,-0.0674,5.1938,-44.6813,-13.5563,197.1179,-30.4373,15.0418,
3.134172,0.4167,0.7630,0.6022,1.2420,1.5920,-1.1173,0.0076,-0.1823,-0.0674,5.2500,-44.6250,-13.8000,197.1179,-30.4373,15.0418,
3.141461,0.4167,0.7630,0.6022,1.2420,1.5920,-1.1173,0.0094,-0.1970,-0.0766,5.2500,-44.6250,-13.8000,197.1179,-30.4373,15.0418,
3.148777,0.4167,0.7630,0.6022,2.3712,-1.1291,1.2034,0.0094,-0.1970,-0.0766,5.2500,-44.6250,-13.8000,197.1179,-30.4373,15.0418,
3.156779,0.4167,0.7630,0.6022,2.3712,-1.1291,1.2034,0.0094,-0.1970,-0.0766,5.2500,-44.6250,-13.8000,198.6739,-31.1695,15.7434,
3.162517,0.4587,0.4751,0.8186,2.3712,-1.1291,1.2034,0.0094,-0.1970,-0.0766,5.2500,-44.6250,-13.8000,198.6739,-31.1695,15.7434,
3.163963,0.4502,0.3701,0.9178,2.3712,-1.1291,1.2034,0.0094,-0.1970,-0.0766,5.2500,-44.6250,-13.8000,198.6739,-31.1695,15.7434,
3.165433,0.3500,0.4615,0.8201,2.3712,-1.1291,1.2034,0.0094,-0.1970,-0.0766,5.2500,-44.6250,-13.8000,198.6739,-31.1695,15.7434,
3.166739,0.3794,0.4817,0.7988,2.3712,-1.1291,1.2034,0.0094,-0.1970,-0.0766,5.2500,-44.6250,-13.8000,198.6739,-31.1695,15.7434,
3.168019,0.4714,0.4265,0.7730,2.3712,-1.1291,1.2034,0.0094,-0.1970,-0.0766,5.2500,-44.6250,-13.8000,198.6739,-31.1695,15.7434,
3.196261,0.4714,0.4265,0.7730,2.3712,-1.1291,1.2034,0.0130,-0.1878,-0.0885,5.2500,-44.6250,-13.8000,198.6739,-31.1695,15.7434,
3.199351,0.4714,0.4265,0.7730,2.3636,-0.5274,0.0351,0.0130,-0.1878,-0.0885,5.2500,-44.6250,-13.8000,198.6739,-31.1695,15.7434,
3.201659,0.4714,0.4265,0.7730,2.3636,-0.5274,0.0351,0.0130,-0.1878,-0.0885,5.2500,-44.6250,-13.8000,199.9364,-31.7536,16.2844,
3.203925,0.4714,0.4265,0.7730,2.3636,-0.5274,0.0351,0.0130,-0.1878,-0.0885,4.8188,-44.6063,-14.3250,199.9364,-31.7536,16.2844,
3.254323,0.3835,0.2672,0.9674,2.3636,-0.5274,0.0351,0.0130,-0.1878,-0.0885,4.8188,-44.6063,-14.3250,199.9364,-31.7536,16.2844,
3.256100,0.3586,0.3657,0.8812,2.3636,-0.5274,0.0351,0.0130,-0.1878,-0.0885,4.8188,-44.6063,-14.3250,199.9364,-31.7536,16.2844,
3.257432,0.4981,0.5135,0.7458,2.3636,-0.5274,0.0351,0.0130,-0.1878,-0.0885,4.8188,-44.6063,-14.3250,199.9364,-31.7536,16.2844,
3.258626,0.5367,0.3476,0.7541,2.3636,-0.5274,0.0351,0.0130,-0.1878,-0.0885,4.8188,-44.6063,-14.3250,199.9364,-31.7536,16.2844,
3.259917,0.4468,0.2064,0.9459,2.3636,-0.5274,0.0351,0.0130,-0.1878,-0.0885,4.8188,-44.6063,-14.3250,199.9364,-31.7536,16.2844,
3.261740,0.4468,0.2064,0.9459,2.3636,-0.5274,0.0351,0.0057,-0.1580,-0.0854,4.8188,-44.6063,-14.3250,199.9364,-31.7536,16.2844,
3.263459,0.4468,0.2064,0.9459,2.2740,-1.8311,-1.8394,0.0057,-0.1580,-0.0854,4.8188,-44.6063,-14.3250,199.9364,-31.7536,16.2844,
3.264795,0.4468,0.2064,0.9459,2.2740,-1.8311,-1.8394,0.0057,-0.1580,-0.0854,4.8188,-44.6063,-14.3250,200.9303,-32.2259,16.7429,
3.266000,0.4468,0.2064,0.9459,2.2740,-1.8311,-1.8394,0.0057,-0.1580,-0.0854,4.1063,-44.6063,-14.6813,200.9303,-32.2259,16.7429,
3.328506,0.4468,0.2064,0.9459,2.2740,-1.8311,-1.8394,-0.0338,-0.1116,-0.0460,4.1063,-44.6063,-14.6813,200.9303,-32.2259,16.7429,
3.330324,0.4468,0.2064,0.9459,3.2130,-1.3522,-2.5221,-0.0338,-0.1116,-0.0460,4.1063,-44.6063,-14.6813,200.9303,-32.2259,16.7429,
3.331765,0.4468,0.2064,0.9459,3.2130,-1.3522,-2.5221,-0.0338,-0.1116,-0.0460,4.1063,-44.6063,-14.6813,201.8208,-32.6749,17.4422,
3.336008,0.4468,0.2064,0.9459,3.2130,-1.3522,-2.5221,-0.0338,-0.1116,-0.0460,2.8500,-44.5500,-15.0375,201.8208,-32.6749,17.4422,
3.352842,0.3149,0.3833,0.9520,3.2130,-1.3522,-2.5221,-0.0338,-0.1116,-0.0460,2.8500,-44.5500,-15.0375,201.8208,-32.6749,17.4422,
3.354588,0.6322,0.3894,0.6550,3.2130,-1.3522,-2.5221,-0.0338,-0.1116,-0.0460,2.8500,-44.5500,-15.0375,201.8208,-32.6749,17.4422,
3.356037,0.8714,0.3701,0.5826,3.2130,-1.3522,-2.5221,-0.0338,-0.1116,-0.0460,2.8500,-44.5500,-15.0375,201.8208,-32.6749,17.4422,
3.357229,0.7880,0.2816,0.6217,3.2130,-1.3522,-2.5221,-0.0338,-0.1116,-0.0460,2.8500,-44.5500,-15.0375,201.8208,-32.6749,17.4422,
3.358214,0.7522,0.2782,0.7087,3.2130,-1.3522,-2.5221,-0.0338,-0.1116,-0.0460,2.8500,-44.5500,-15.0375,201.8208,-32.6749,17.4422,
3.394843,0.7522,0.2782,0.7087,2.9797,-2.3348,1.4151,-0.0338,-0.1116,-0.0460,2.8500,-44.5500,-15.0375,201.8208,-32.6749,17.4422,
3.397046,0.7522,0.2782,0.7087,2.9797,-2.3348,1.4151,-0.1008,-0.0643,0.0328,2.8500,-44.5500,-15.0375,201.8208,-32.6749,17.4422,
3.398996,0.7522,0.2782,0.7087,2.9797,-2.3348,1.4151,-0.1008,-0.0643,0.0328,2.8500,-44.5500,-15.0375,202.4493,-33.0550,18.2279,
3.406483,0.7522,0.2782,0.7087,2.9797,-2.3348,1.4151,-0.1008,-0.0643,0.0328,1.2750,-44.3063,-15.6563,202.4493,-33.0550,18.2279,
3.450702,0.5843,0.2951,0.9496,2.9797,-2.3348,1.4151,-0.1008,-0.0643,0.0328,1.2750,-44.3063,-15.6563,202.4493,-33.0550,18.2279,
3.452808,0.5306,0.3796,0.8736,2.9797,-2.3348,1.4151,-0.1008,-0.0643,0.0328,1.2750,-44.3063,-15.6563,202.4493,-33.0550,18.2279,
3.454104,0.5626,0.3452,0.8494,2.9797,-2.3348,1.4151,-0.1008,-0.0643,0.0328,1.2750,-44.3063,-15.6563,202.4493,-33.0550,18.2279,
3.455431,0.6337,0.2814,0.7783,2.9797,-2.3348,1.4151,-0.1008,-0.0643,0.0328,1.2750,-44.3063,-15.6563,202.4493,-33.0550,18.2279,
3.456801,0.6442,0.2208,0.7937,2.9797,-2.3348,1.4151,-0.1008,-0.0643,0.0328,1.2750,-44.3063,-15.6563,202.4493,-33.0550,18.2279,
3.461237,0.6442,0.2208,0.7937,2.9797,-2.3348,1.4151,-0.1621,-0.0446,0.1315,1.2750,-44.3063,-15.6563,202.4493,-33.0550,18.2279,
3.463060,0.6442,0.2208,0.7937,2.6865,-2.4535,-0.5873,-0.1621,-0.0446,0.1315,1.2750,-44.3063,-15.6563,202.4493,-33.0550,18.2279,
3.464149,0.6442,0.2208,0.7937,2.6865,-2.4535,-0.5873,-0.1621,-0.0446,0.1315,1.2750,-44.3063,-15.6563,202.5431,-33.0851,18.8839,
3.475581,0.6442,0.2208,0.7937,2.6865,-2.4535,-0.5873,-0.1621,-0.0446,0.1315,-0.3375,-44.1750,-16.2750,202.5431,-33.0851,18.8839,
3.528317,0.6442,0.2208,0.7937,2.6865,-2.4535,-0.5873,-0.1892,-0.0628,0.2205,-0.3375,-44.1750,-16.2750,202.5431,-33.0851,18.8839,
3.530294,0.6442,0.2208,0.7937,0.6281,-1.5280,1.0719,-0.1892,-0.0628,0.2205,-0.3375,-44.1750,-16.2750,202.5431,-33.0851,18.8839,
3.531721,0.6442,0.2208,0.7937,0.6281,-1.5280,1.0719,-0.1892,-0.0628,0.2205,-0.3375,-44.1750,-16.2750,202.2598,-32.9609,19.4722,
3.546085,0.6442,0.2208,0.7937,0.6281,-1.5280,1.0719,-0.1892,-0.0628,0.2205,-1.8938,-44.0063,-17.0250,202.2598,-32.9609,19.4722,
3.549522,0.5545,0.2641,0.8196,0.6281,-1.5280,1.0719,-0.1892,-0.0628,0.2205,-1.8938,-44.0063,-17.0250,202.2598,-32.9609,19.4722,
3.551368,0.4641,0.3735,0.8567,0.6281,-1.5280,1.0719,-0.1892,-0.0628,0.2205,-1.8938,-44.0063,-17.0250,202.2598,-32.9609,19.4722,
3.552840,0.4096,0.3420,0.8746,0.6281,-1.5280,1.0719,-0.1892,-0.0628,0.2205,-1.8938,-44.0063,-17.0250,202.2598,-32.9609,19.4722,
3.553893,0.4490,0.2575,0.8579,0.6281,-1.5280,1.0719,-0.1892,-0.0628,0.2205,-1.8938,-44.0063,-17.0250,202.2598,-32.9609,19.4722,
3.554871,0.4267,0.2360,0.8533,0.6281,-1.5280,1.0719,-0.1892,-0.0628,0.2205,-1.8938,-44.0063,-17.0250,202.2598,-32.9609,19.4722,
3.594891,0.4267,0.2360,0.8533,-0.5960,-3.2919,2.3568,-0.1892,-0.0628,0.2205,-1.8938,-44.0063,-17.0250,202.2598,-32.9609,19.4722,
3.596949,0.4267,0.2360,0.8533,-0.5960,-3.2919,2.3568,-0.1854,-0.0920,0.2769,-1.8938,-44.0063,-17.0250,202.2598,-32.9609,19.4722,
3.598181,0.4267,0.2360,0.8533,-0.5960,-3.2919,2.3568,-0.1854,-0.0920,0.2769,-1.8938,-44.0063,-17.0250,201.7920,-32.8906,20.0264,
3.615482,0.4267,0.2360,0.8533,-0.5960,-3.2919,2.3568,-0.1854,-0.0920,0.2769,-3.2063,-43.8938,-17.8125,201.7920,-32.8906,20.0264,
3.647578,0.3200,0.1903,0.9699,-0.5960,-3.2919,2.3568,-0.1854,-0.0920,0.2769,-3.2063,-43.8938,-17.8125,201.7920,-32.8906,20.0264,
3.649670,0.2724,0.3542,0.9872,-0.5960,-3.2919,2.3568,-0.1854,-0.0920,0.2769,-3.2063,-43.8938,-17.8125,201.7920,-32.8906,20.0264,
3.651000,0.3036,0.2453,0.9291,-0.5960,-3.2919,2.3568,-0.1854,-0.0920,0.2769,-3.2063,-43.8938,-17.8125,201.7920,-32.8906,20.0264,
3.652304,0.2941,0.0171,0.9755,-0.5960,-3.2919,2.3568,-0.1854,-0.0920,0.2769,-3.2063,-43.8938,-17.8125,201.7920,-32.8906,20.0264,
3.653223,0.3039,0.2626,0.8678,-0.5960,-3.2919,2.3568,-0.1854,-0.0920,0.2769,-3.2063,-43.8938,-17.8125,201.7920,-32.8906,20.0264,
3.661860,0.3039,0.2626,0.8678,-0.5960,-3.2919,2.3568,-0.1654,-0.0905,0.2907,-3.2063,-43.8938,-17.8125,201.7920,-32.8906,20.0264,
3.663820,0.3039,0.2626,0.8678,-0.8258,-3.3036,1.1741,-0.1654,-0.0905,0.2907,-3.2063,-43.8938,-17.8125,201.7920,-32.8906,20.0264,
3.665036,0.3039,0.2626,0.8678,-0.8258,-3.3036,1.1741,-0.1654,-0.0905,0.2907,-3.2063,-43.8938,-17.8125,201.3391,-33.0064,20.5929,
3.686529,0.3039,0.2626,0.8678,-0.8258,-3.3036,1.1741,-0.1654,-0.0905,0.2907,-4.4062,-43.8563,-18.1875,201.3391,-33.0064,20.5929,
3.727923,0.3039,0.2626,0.8678,-0.8258,-3.3036,1.1741,-0.1288,-0.0449,0.2633,-4.4062,-43.8563,-18.1875,201.3391,-33.0064,20.5929,
3.729959,0.3039,0.2626,0.8678,-0.8258,-3.3036,1.1741,-0.1288,-0.0449,0.2633,-4.4062,-43.8563,-18.1875,201.3391,-33.0064,20.5929,
3.731375,0.3039,0.2626,0.8678,0.3538,-0.6403,0.1267,-0.1288,-0.0449,0.2633,-4.4062,-43.8563,-18.1875,201.3391,-33.0064,20.5929,
3.746666,0.3473,0.4893,0.8540,0.3538,-0.6403,0.1267,-0.1288,-0.0449,0.2633,-4.4062,-43.8563,-18.1875,201.3391,-33.0064,20.5929,
3.748936,0.3813,0.3423,0.9039,0.3538,-0.6403,0.1267,-0.1288,-0.0449,0.2633,-4.4062,-43.8563,-18.1875,201.3391,-33.0064,20.5929,
3.750310,0.3659,0.4427,0.8235,0.3538,-0.6403,0.1267,-0.1288,-0.0449,0.2633,-4.4062,-43.8563,-18.1875,201.3391,-33.0064,20.5929,
3.751598,0.4453,0.5416,0.8340,0.3538,-0.6403,0.1267,-0.1288,-0.0449,0.2633,-4.4062,-43.8563,-18.1875,201.3391,-33.0064,20.5929,
3.752925,0.5408,0.4211,0.6862,0.3538,-0.6403,0.1267,-0.1288,-0.0449,0.2633,-4.4062,-43.8563,-18.1875,201.3391,-33.0064,20.5929,
3.755424,0.5408,0.4211,0.6862,0.3538,-0.6403,0.1267,-0.1288,-0.0449,0.2633,-5.2875,-43.7438,-18.3375,201.3391,-33.0064,20.5929,
3.794951,0.5408,0.4211,0.6862,0.3538,-0.6403,0.1267,-0.0765,0.0118,0.2092,-5.2875,-43.7438,-18.3375,201.3391,-33.0064,20.5929,
3.797241,0.5408,0.4211,0.6862,1.4882,-1.7796,0.9096,-0.0765,0.0118,0.2092,-5.2875,-43.7438,-18.3375,201.3391,-33.0064,20.5929,
3.799208,0.5408,0.4211,0.6862,1.4882,-1.7796,0.9096,-0.0765,0.0118,0.2092,-5.2875,-43.7438,-18.3375,200.3395,-33.1259,21.3943,
3.825552,0.5408,0.4211,0.6862,1.4882,-1.7796,0.9096,-0.0765,0.0118,0.2092,-6.0375,-43.6313,-18.3375,200.3395,-33.1259,21.3943,
3.844360,0.6283,0.3408,0.7632,1.4882,-1.7796,0.9096,-0.0765,0.0118,0.2092,-6.0375,-43.6313,-18.3375,200.3395,-33.1259,21.3943,
3.845795,0.5997,0.3124,0.7847,1.4882,-1.7796,0.9096,-0.0765,0.0118,0.2092,-6.0375,-43.6313,-18.3375,200.3395,-33.1259,21.3943,
3.846836,0.5613,0.4175,0.7764,1.4882,-1.7796,0.9096,-0.0765,0.0118,0.2092,-6.0375,-43.6313,-18.3375,200.3395,-33.1259,21.3943,
3.847915,0.5486,0.3183,0.7967,1.4882,-1.7796,0.9096,-0.0765,0.0118,0.2092,-6.0375,-43.6313,-18.3375,200.3395,-33.1259,21.3943,
3.849040,0.4492,0.2787,0.8829,1.4882,-1.7796,0.9096,-0.0765,0.0118,0.2092,-6.0375,-43.6313,-18.3375,200.3395,-33.1259,21.3943,
3.862029,0.4492,0.2787,0.8829,0.7213,-2.3054,0.7244,-0.0765,0.0118,0.2092,-6.0375,-43.6313,-18.3375,200.3395,-33.1259,21.3943,
3.864505,0.4492,0.2787,0.8829,0.7213,-2.3054,0.7244,-0.0265,0.0432,0.1563,-6.0375,-43.6313,-18.3375,200.3395,-33.1259,21.3943,
3.866740,0.4492,0.2787,0.8829,0.7213,-2.3054,0.7244,-0.0265,0.0432,0.1563,-6.0375,-43.6313,-18.3375,200.3395,-33.1259,21.3943,
3.897281,0.4492,0.2787,0.8829,0.7213,-2.3054,0.7244,-0.0265,0.0432,0.1563,-6.3188,-43.5563,-18.3375,200.3395,-33.1259,21.3943,
3.928703,0.4492,0.2787,0.8829,0.7213,-2.3054,0.7244,-0.0030,0.0493,0.1350,-6.3188,-43.5563,-18.3375,200.3395,-33.1259,21.3943,
3.931584,0.4492,0.2787,0.8829,-0.2228,-2.5520,2.0052,-0.0030,0.0493,0.1350,-6.3188,-43.5563,-18.3375,200.3395,-33.1259,21.3943,
3.933873,0.4492,0.2787,0.8829,-0.2228,-2.5520,2.0052,-0.0030,0.0493,0.1350,-6.3188,-43.5563,-18.3375,199.6686,-32.8834,22.2178,
3.942252,0.3723,0.3083,0.9093,-0.2228,-2.5520,2.0052,-0.0030,0.0493,0.1350,-6.3188,-43.5563,-18.3375,199.6686,-32.8834,22.2178,
3.944350,0.4646,0.3007,0.8140,-0.2228,-2.5520,2.0052,-0.0030,0.0493,0.1350,-6.3188,-43.5563,-18.3375,199.6686,-32.8834,22.2178,
3.946457,0.4597,0.3330,0.8788,-0.2228,-2.5520,2.0052,-0.0030,0.0493,0.1350,-6.3188,-43.5563,-18.3375,199.6686,-32.8834,22.2178,
3.948549,0.3002,0.2242,1.0116,-0.2228,-2.5520,2.0052,-0.0030,0.0493,0.1350,-6.3188,-43.5563,-18.3375,199.6686,-32.8834,22.2178,
3.950598,0.1656,0.1016,1.0544,-0.2228,-2.5520,2.0052,-0.0030,0.0493,0.1350,-6.3188,-43.5563,-18.3375,199.6686,-32.8834,22.2178,
3.966134,0.1656,0.1016,1.0544,-0.2228,-2.5520,2.0052,-0.0030,0.0493,0.1350,-6.0375,-43.5563,-18.3188,199.6686,-32.8834,22.2178,
3.995765,0.1656,0.1016,1.0544,-0.2228,-2.5520,2.0052,-0.0030,0.0493,0.1350,-6.0375,-43.5563,-18.3188,199.4427,-32.4272,22.7075,
3.998925,0.1656,0.1016,1.0544,-0.2228,-2.5520,2.0052,-0.0143,0.0571,0.1551,-6.0375,-43.5563,-18.3188,199.4427,-32.4272,22.7075,
4.001227,0.1656,0.1016,1.0544,0.9016,-7.1665,2.2278,-0.0143,0.0571,0.1551,-6.0375,-43.5563,-18.3188,199.4427,-32.4272,22.7075,
4.037269,0.1656,0.1016,1.0544,0.9016,-7.1665,2.2278,-0.0143,0.0571,0.1551,-5.9625,-43.5375,-18.0938,199.4427,-32.4272,22.7075,
4.047854,0.3144,-0.1483,0.9027,0.9016,-7.1665,2.2278,-0.0143,0.0571,0.1551,-5.9625,-43.5375,-18.0938,199.4427,-32.4272,22.7075,
4.055560,0.4424,-0.2053,0.9897,0.9016,-7.1665,2.2278,-0.0143,0.0571,0.1551,-5.9625,-43.5375,-18.0938,199.4427,-32.4272,22.7075,
4.063898,0.5992,0.1116,0.8413,0.9016,-7.1665,2.2278,-0.0143,0.0571,0.1551,-5.9625,-43.5375,-18.0938,199.4427,-32.4272,22.7075,
4.068751,0.4827,0.5580,0.8323,0.9016,-7.1665,2.2278,-0.0143,0.0571,0.1551,-5.9625,-43.5375,-18.0938,199.4427,-32.4272,22.7075,
4.072677,0.3960,0.5301,0.7197,0.9016,-7.1665,2.2278,-0.0143,0.0571,0.1551,-5.9625,-43.5375,-18.0938,199.4427,-32.4272,22.7075,
4.076680,0.3960,0.5301,0.7197,0.9016,-7.1665,2.2278,-0.0476,0.0870,0.1989,-5.9625,-43.5375,-18.0938,199.4427,-32.4272,22.7075,
4.082607,0.3960,0.5301,0.7197,-0.2683,4.0772,-0.6115,-0.0476,0.0870,0.1989,-5.9625,-43.5375,-18.0938,199.4427,-32.4272,22.7075,
4.084546,0.3960,0.5301,0.7197,-0.2683,4.0772,-0.6115,-0.0476,0.0870,0.1989,-5.9625,-43.5375,-18.0938,199.0117,-31.6458,23.0208,
4.106117,0.3960,0.5301,0.7197,-0.2683,4.0772,-0.6115,-0.0476,0.0870,0.1989,-6.0000,-43.6500,-17.7375,199.0117,-31.6458,23.0208,
4.128805,0.3960,0.5301,0.7197,-0.2683,4.0772,-0.6115,-0.0724,0.1322,0.2334,-6.0000,-43.6500,-17.7375,199.0117,-31.6458,23.0208,
4.132037,0.3960,0.5301,0.7197,-1.8615,-0.6091,0.8429,-0.0724,0.1322,0.2334,-6.0000,-43.6500,-17.7375,199.0117,-31.6458,23.0208,
4.134309,0.3960,0.5301,0.7197,-1.8615,-0.6091,0.8429,-0.0724,0.1322,0.2334,-6.0000,-43.6500,-17.7375,198.3581,-30.6688,23.1341,
4.138667,0.3207,0.8516,0.7482,-1.8615,-0.6091,0.8429,-0.0724,0.1322,0.2334,-6.0000,-43.6500,-17.7375,198.3581,-30.6688,23.1341,
4.141109,0.2176,0.6161,0.8883,-1.8615,-0.6091,0.8429,-0.0724,0.1322,0.2334,-6.0000,-43.6500,-17.7375,198.3581,-30.6688,23.1341,
4.143347,0.2406,0.4593,0.9378,-1.8615,-0.6091,0.8429,-0.0724,0.1322,0.2334,-6.0000,-43.6500,-17.7375,198.3581,-30.6688,23.1341,
4.145634,0.2103,0.3913,0.8780,-1.8615,-0.6091,0.8429,-0.0724,0.1322,0.2334,-6.0000,-43.6500,-17.7375,198.3581,-30.6688,23.1341,
4.147889,0.2325,0.3991,0.8936,-1.8615,-0.6091,0.8429,-0.0724,0.1322,0.2334,-6.0000,-43.6500,-17.7375,198.3581,-30.6688,23.1341,
4.176005,0.2325,0.3991,0.8936,-1.8615,-0.6091,0.8429,-0.0724,0.1322,0.2334,-6.1500,-43.6500,-17.2875,198.3581,-30.6688,23.1341,
4.196018,0.2325,0.3991,0.8936,-1.8615,-0.6091,0.8429,-0.0598,0.1701,0.2330,-6.1500,-43.6500,-17.2875,198.3581,-30.6688,23.1341,
4.198670,0.2325,0.3991,0.8936,3.3892,-0.9249,-0.1366,-0.0598,0.1701,0.2330,-6.1500,-43.6500,-17.2875,198.3581,-30.6688,23.1341,
4.200895,0.2325,0.3991,0.8936,3.3892,-0.9249,-0.1366,-0.0598,0.1701,0.2330,-6.1500,-43.6500,-17.2875,197.7259,-29.7497,23.2694,
4.248635,0.3725,0.3357,0.8729,3.3892,-0.9249,-0.1366,-0.0598,0.1701,0.2330,-6.1500,-43.6500,-17.2875,197.7259,-29.7497,23.2694,
4.251540,0.5611,0.3192,0.8785,3.3892,-0.9249,-0.1366,-0.0598,0.1701,0.2330,-6.1500,-43.6500,-17.2875,197.7259,-29.7497,23.2694,
4.253780,0.7194,0.3396,0.7920,3.3892,-0.9249,-0.1366,-0.0598,0.1701,0.2330,-6.1500,-43.6500,-17.2875,197.7259,-29.7497,23.2694,
4.255857,0.7045,0.2936,0.6762,3.3892,-0.9249,-0.1366,-0.0598,0.1701,0.2330,-6.1500,-43.6500,-17.2875,197.7259,-29.7497,23.2694,
4.257998,0.4619,0.3550,0.7869,3.3892,-0.9249,-0.1366,-0.0598,0.1701,0.2330,-6.1500,-43.6500,-17.2875,197.7259,-29.7497,23.2694,
4.260143,0.4619,0.3550,0.7869,3.3892,-0.9249,-0.1366,-0.0598,0.1701,0.2330,-6.2625,-43.7250,-16.9688,197.7259,-29.7497,23.2694,
4.262175,0.4619,0.3550,0.7869,3.3892,-0.9249,-0.1366,-0.0102,0.1926,0.2001,-6.2625,-43.7250,-16.9688,197.7259,-29.7497,23.2694,
4.263903,0.4619,0.3550,0.7869,-3.5646,0.2283,0.8783,-0.0102,0.1926,0.2001,-6.2625,-43.7250,-16.9688,197.7259,-29.7497,23.2694,
4.265656,0.4619,0.3550,0.7869,-3.5646,0.2283,0.8783,-0.0102,0.1926,0.2001,-6.2625,-43.7250,-16.9688,197.1017,-29.0579,23.2763,
4.316176,0.4619,0.3550,0.7869,-3.5646,0.2283,0.8783,-0.0102,0.1926,0.2001,-6.2438,-43.7063,-16.7812,197.1017,-29.0579,23.2763,
4.331954,0.4619,0.3550,0.7869,-3.5646,0.2283,0.8783,0.0416,0.1885,0.1548,-6.2438,-43.7063,-16.7812,197.1017,-29.0579,23.2763,
4.341472,0.4619,0.3550,0.7869,0.7975,-1.5635,-0.3152,0.0416,0.1885,0.1548,-6.2438,-43.7063,-16.7812,197.1017,-29.0579,23.2763,
4.343959,0.4619,0.3550,0.7869,0.7975,-1.5635,-0.3152,0.0416,0.1885,0.1548,-6.2438,-43.7063,-16.7812,196.5203,-28.4884,23.3381,
4.345774,0.0950,0.4388,0.8858,0.7975,-1.5635,-0.3152,0.0416,0.1885,0.1548,-6.2438,-43.7063,-16.7812,196.5203,-28.4884,23.3381,
4.347426,0.0126,0.4624,0.8817,0.7975,-1.5635,-0.3152,0.0416,0.1885,0.1548,-6.2438,-43.7063,-16.7812,196.5203,-28.4884,23.3381,
4.349184,0.1641,0.3362,0.9819,0.7975,-1.5635,-0.3152,0.0416,0.1885,0.1548,-6.2438,-43.7063,-16.7812,196.5203,-28.4884,23.3381,
4.350847,0.3478,0.2907,0.9728,0.7975,-1.5635,-0.3152,0.0416,0.1885,0.1548,-6.2438,-43.7063,-16.7812,196.5203,-28.4884,23.3381,
4.352584,0.4629,0.2885,0.7192,0.7975,-1.5635,-0.3152,0.0416,0.1885,0.1548,-6.2438,-43.7063,-16.7812,196.5203,-28.4884,23.3381,
4.386108,0.4629,0.2885,0.7192,0.7975,-1.5635,-0.3152,0.0416,0.1885,0.1548,-6.0750,-43.7063,-16.8750,196.5203,-28.4884,23.3381,
4.395903,0.4629,0.2885,0.7192,1.2126,-1.3733,-0.0406,0.0416,0.1885,0.1548,-6.0750,-43.7063,-16.8750,196.5203,-28.4884,23.3381,
4.399318,0.4629,0.2885,0.7192,1.2126,-1.3733,-0.0406,0.0416,0.1885,0.1548,-6.0750,-43.7063,-16.8750,196.5203,-28.4884,23.3381,
4.401660,0.4629,0.2885,0.7192,1.2126,-1.3733,-0.0406,0.0571,0.1383,0.1157,-6.0750,-43.7063,-16.8750,196.5203,-28.4884,23.3381,
4.433398,0.3774,0.3039,0.7097,1.2126,-1.3733,-0.0406,0.0571,0.1383,0.1157,-6.0750,-43.7063,-16.8750,196.5203,-28.4884,23.3381,
4.436603,0.3002,0.2814,0.7727,1.2126,-1.3733,-0.0406,0.0571,0.1383,0.1157,-6.0750,-43.7063,-16.8750,196.5203,-28.4884,23.3381,
4.438970,0.4534,0.2658,0.7905,1.2126,-1.3733,-0.0406,0.0571,0.1383,0.1157,-6.0750,-43.7063,-16.8750,196.5203,-28.4884,23.3381,
4.441264,0.3576,0.2370,0.9987,1.2126,-1.3733,-0.0406,0.0571,0.1383,0.1157,-6.0750,-43.7063,-16.8750,196.5203,-28.4884,23.3381,
4.443472,0.1480,0.2875,1.1401,1.2126,-1.3733,-0.0406,0.0571,0.1383,0.1157,-6.0750,-43.7063,-16.8750,196.5203,-28.4884,23.3381,
4.455495,0.1480,0.2875,1.1401,1.2126,-1.3733,-0.0406,0.0571,0.1383,0.1157,-5.8875,-43.6125,-17.1375,196.5203,-28.4884,23.3381,
4.464856,0.1480,0.2875,1.1401,1.2126,-1.3733,-0.0406,0.0318,0.0469,0.0908,-5.8875,-43.6125,-17.1375,196.5203,-28.4884,23.3381,
4.467145,0.1480,0.2875,1.1401,1.1892,-1.3132,-0.0610,0.0318,0.0469,0.0908,-5.8875,-43.6125,-17.1375,196.5203,-28.4884,23.3381,
4.468377,0.1480,0.2875,1.1401,1.1892,-1.3132,-0.0610,0.0318,0.0469,0.0908,-5.8875,-43.6125,-17.1375,195.3824,-27.6932,23.5267,
4.525688,0.1480,0.2875,1.1401,1.1892,-1.3132,-0.0610,0.0318,0.0469,0.0908,-6.1875,-43.3875,-17.5312,195.3824,-27.6932,23.5267,
4.528232,0.1480,0.2875,1.1401,1.1892,-1.3132,-0.0610,-0.0133,-0.0544,0.0793,-6.1875,-43.3875,-17.5312,195.3824,-27.6932,23.5267,
4.529377,0.1480,0.2875,1.1401,3.2777,-1.4088,-0.8363,-0.0133,-0.0544,0.0793,-6.1875,-43.3875,-17.5312,195.3824,-27.6932,23.5267,
4.530778,0.1480,0.2875,1.1401,3.2777,-1.4088,-0.8363,-0.0133,-0.0544,0.0793,-6.1875,-43.3875,-17.5312,195.3824,-27.6932,23.5267,
4.532019,0.4011,0.3122,0.9916,3.2777,-1.4088,-0.8363,-0.0133,-0.0544,0.0793,-6.1875,-43.3875,-17.5312,195.3824,-27.6932,23.5267,
4.533326,0.7807,0.2707,0.7431,3.2777,-1.4088,-0.8363,-0.0133,-0.0544,0.0793,-6.1875,-43.3875,-17.5312,195.3824,-27.6932,23.5267,
4.534666,0.8377,0.2309,0.8118,3.2777,-1.4088,-0.8363,-0.0133,-0.0544,0.0793,-6.1875,-43.3875,-17.5312,195.3824,-27.6932,23.5267,
4.536023,0.7402,0.2523,1.1296,3.2777,-1.4088,-0.8363,-0.0133,-0.0544,0.0793,-6.1875,-43.3875,-17.5312,195.3824,-27.6932,23.5267,
4.537395,0.7761,0.2159,1.3454,3.2777,-1.4088,-0.8363,-0.0133,-0.0544,0.0793,-6.1875,-43.3875,-17.5312,195.3824,-27.6932,23.5267,
4.595935,0.7761,0.2159,1.3454,3.3423,-2.5172,5.1053,-0.0133,-0.0544,0.0793,-6.1875,-43.3875,-17.5312,195.3824,-27.6932,23.5267,
4.597809,0.7761,0.2159,1.3454,3.3423,-2.5172,5.1053,-0.0133,-0.0544,0.0793,-6.1875,-43.3875,-17.5312,194.1848,-26.7765,23.8130,
4.598846,0.7761,0.2159,1.3454,3.3423,-2.5172,5.1053,-0.0594,-0.1241,0.0776,-6.1875,-43.3875,-17.5312,194.1848,-26.7765,23.8130,
4.599808,0.7761,0.2159,1.3454,3.3423,-2.5172,5.1053,-0.0594,-0.1241,0.0776,-6.0375,-43.2000,-18.1500,194.1848,-26.7765,23.8130,
4.630032,0.0774,0.1314,0.1807,3.3423,-2.5172,5.1053,-0.0594,-0.1241,0.0776,-6.0375,-43.2000,-18.1500,194.1848,-26.7765,23.8130,
4.633229,-0.6165,0.2017,0.7299,3.3423,-2.5172,5.1053,-0.0594,-0.1241,0.0776,-6.0375,-43.2000,-18.1500,194.1848,-26.7765,23.8130,
4.635629,-0.1640,0.2472,0.9156,3.3423,-2.5172,5.1053,-0.0594,-0.1241,0.0776,-6.0375,-43.2000,-18.1500,194.1848,-26.7765,23.8130,
4.638196,0.4116,0.1944,0.6100,3.3423,-2.5172,5.1053,-0.0594,-0.1241,0.0776,-6.0375,-43.2000,-18.1500,194.1848,-26.7765,23.8130,
4.640483,0.4692,0.1385,1.1108,3.3423,-2.5172,5.1053,-0.0594,-0.1241,0.0776,-6.0375,-43.2000,-18.1500,194.1848,-26.7765,23.8130,
4.661690,0.4692,0.1385,1.1108,3.3423,-2.5172,5.1053,-0.0941,-0.1227,0.0811,-6.0375,-43.2000,-18.1500,194.1848,-26.7765,23.8130,
4.664926,0.4692,0.1385,1.1108,3.3423,-2.5172,5.1053,-0.0941,-0.1227,0.0811,-6.0375,-43.2000,-18.1500,193.5353,-26.1845,23.8699,
4.666830,0.4692,0.1385,1.1108,-0.8038,-2.0015,-2.3210,-0.0941,-0.1227,0.0811,-6.0375,-43.2000,-18.1500,193.5353,-26.1845,23.8699,
4.668902,0.4692,0.1385,1.1108,-0.8038,-2.0015,-2.3210,-0.0941,-0.1227,0.0811,-5.7000,-42.8813,-19.0312,193.5353,-26.1845,23.8699,
4.729723,0.1761,0.1566,1.1042,-0.8038,-2.0015,-2.3210,-0.0941,-0.1227,0.0811,-5.7000,-42.8813,-19.0312,193.5353,-26.1845,23.8699,
4.742413,-0.0573,0.1698,0.5013,-0.8038,-2.0015,-2.3210,-0.0941,-0.1227,0.0811,-5.7000,-42.8813,-19.0312,193.5353,-26.1845,23.8699,
4.753553,-0.0323,0.1278,0.8020,-0.8038,-2.0015,-2.3210,-0.0941,-0.1227,0.0811,-5.7000,-42.8813,-19.0312,193.5353,-26.1845,23.8699,
4.762343,0.1463,0.0361,1.6234,-0.8038,-2.0015,-2.3210,-0.0941,-0.1227,0.0811,-5.7000,-42.8813,-19.0312,193.5353,-26.1845,23.8699,
4.765157,0.2169,0.0410,1.7836,-0.8038,-2.0015,-2.3210,-0.0941,-0.1227,0.0811,-5.7000,-42.8813,-19.0312,193.5353,-26.1845,23.8699,
4.767613,0.2169,0.0410,1.7836,-0.8038,-2.0015,-2.3210,-0.1154,-0.0252,0.0854,-5.7000,-42.8813,-19.0312,193.5353,-26.1845,23.8699,
4.769933,0.2169,0.0410,1.7836,-4.7462,-2.1980,-4.1594,-0.1154,-0.0252,0.0854,-5.7000,-42.8813,-19.0312,193.5353,-26.1845,23.8699,
4.772120,0.2169,0.0410,1.7836,-4.7462,-2.1980,-4.1594,-0.1154,-0.0252,0.0854,-5.7000,-42.8813,-19.0312,192.7834,-25.4211,23.7880,
4.774427,0.2169,0.0410,1.7836,-4.7462,-2.1980,-4.1594,-0.1154,-0.0252,0.0854,-5.1000,-42.3563,-20.3813,192.7834,-25.4211,23.7880,
4.796267,0.2169,0.0410,1.7836,-4.7462,-2.1980,-4.1594,-0.1378,0.1364,0.0847,-5.1000,-42.3563,-20.3813,192.7834,-25.4211,23.7880,
4.798929,0.2169,0.0410,1.7836,-4.7462,-2.1980,-4.1594,-0.1378,0.1364,0.0847,-5.1000,-42.3563,-20.3813,191.9745,-24.5593,23.5506,
4.801070,0.2169,0.0410,1.7836,-2.2957,-3.1072,4.1580,-0.1378,0.1364,0.0847,-5.1000,-42.3563,-20.3813,191.9745,-24.5593,23.5506,
4.806249,0.2169,0.0410,1.7836,-2.2957,-3.1072,4.1580,-0.1378,0.1364,0.0847,-4.5188,-41.6063,-21.9375,191.9745,-24.5593,23.5506,
4.827957,0.1165,0.0781,1.1533,-2.2957,-3.1072,4.1580,-0.1378,0.1364,0.0847,-4.5188,-41.6063,-21.9375,191.9745,-24.5593,23.5506,
4.831158,0.1668,0.0857,0.8281,-2.2957,-3.1072,4.1580,-0.1378,0.1364,0.0847,-4.5188,-41.6063,-21.9375,191.9745,-24.5593,23.5506,
4.832740,0.1563,0.0764,0.9926,-2.2957,-3.1072,4.1580,-0.1378,0.1364,0.0847,-4.5188,-41.6063,-21.9375,191.9745,-24.5593,23.5506,
4.834255,0.0732,0.0806,1.0468,-2.2957,-3.1072,4.1580,-0.1378,0.1364,0.0847,-4.5188,-41.6063,-21.9375,191.9745,-24.5593,23.5506,
4.835618,0.1104,0.0772,0.9518,-2.2957,-3.1072,4.1580,-0.1378,0.1364,0.0847,-4.5188,-41.6063,-21.9375,191.9745,-24.5593,23.5506,
4.863419,0.1104,0.0772,0.9518,-2.2957,-3.1072,4.1580,-0.1809,0.2771,0.0715,-4.5188,-41.6063,-21.9375,191.9745,-24.5593,23.5506,
4.866619,0.1104,0.0772,0.9518,-2.2957,-3.1072,4.1580,-0.1809,0.2771,0.0715,-4.5188,-41.6063,-21.9375,191.2037,-23.6735,23.2374,
4.868879,0.1104,0.0772,0.9518,-2.9695,-2.8883,2.0515,-0.1809,0.2771,0.0715,-4.5188,-41.6063,-21.9375,191.2037,-23.6735,23.2374,
4.877086,0.1104,0.0772,0.9518,-2.9695,-2.8883,2.0515,-0.1809,0.2771,0.0715,-3.9188,-40.9125,-23.4375,191.2037,-23.6735,23.2374,
4.926974,0.1829,0.0791,0.7338,-2.9695,-2.8883,2.0515,-0.1809,0.2771,0.0715,-3.9188,-40.9125,-23.4375,191.2037,-23.6735,23.2374,
4.930644,0.1184,0.0654,0.8790,-2.9695,-2.8883,2.0515,-0.1809,0.2771,0.0715,-3.9188,-40.9125,-23.4375,191.2037,-23.6735,23.2374,
4.932817,0.0224,0.0430,1.1247,-2.9695,-2.8883,2.0515,-0.1809,0.2771,0.0715,-3.9188,-40.9125,-23.4375,191.2037,-23.6735,23.2374,
4.934934,0.0297,0.0376,1.1226,-2.9695,-2.8883,2.0515,-0.1809,0.2771,0.0715,-3.9188,-40.9125,-23.4375,191.2037,-23.6735,23.2374,
4.937140,0.0195,0.0315,1.0729,-2.9695,-2.8883,2.0515,-0.1809,0.2771,0.0715,-3.9188,-40.9125,-23.4375,191.2037,-23.6735,23.2374,
4.939239,0.0195,0.0315,1.0729,-2.9695,-2.8883,2.0515,-0.1809,0.2771,0.0715,-3.9188,-40.9125,-23.4375,190.3775,-22.7438,22.7307,
4.941606,0.0195,0.0315,1.0729,-3.3972,-3.0591,2.4702,-0.1809,0.2771,0.0715,-3.9188,-40.9125,-23.4375,190.3775,-22.7438,22.7307,
4.943787,0.0195,0.0315,1.0729,-3.3972,-3.0591,2.4702,-0.2411,0.3339,0.0439,-3.9188,-40.9125,-23.4375,190.3775,-22.7438,22.7307,
4.951115,0.0195,0.0315,1.0729,-3.3972,-3.0591,2.4702,-0.2411,0.3339,0.0439,-2.9813,-40.0688,-24.8625,190.3775,-22.7438,22.7307,
4.996516,0.0195,0.0315,1.0729,-3.3972,-3.0591,2.4702,-0.2929,0.3298,0.0131,-2.9813,-40.0688,-24.8625,190.3775,-22.7438,22.7307,
5.005007,0.0195,0.0315,1.0729,-3.3972,-3.0591,2.4702,-0.2929,0.3298,0.0131,-2.9813,-40.0688,-24.8625,189.6002,-21.7198,22.2542,
5.012657,0.0195,0.0315,1.0729,-3.4895,-3.0934,2.1789,-0.2929,0.3298,0.0131,-2.9813,-40.0688,-24.8625,189.6002,-21.7198,22.2542,
5.022894,0.0195,0.0315,1.0729,-3.4895,-3.0934,2.1789,-0.2929,0.3298,0.0131,-1.8750,-39.3188,-26.1938,189.6002,-21.7198,22.2542,
5.030124,0.0180,0.0276,1.0854,-3.4895,-3.0934,2.1789,-0.2929,0.3298,0.0131,-1.8750,-39.3188,-26.1938,189.6002,-21.7198,22.2542,
5.036077,0.0070,0.0247,1.0906,-3.4895,-3.0934,2.1789,-0.2929,0.3298,0.0131,-1.8750,-39.3188,-26.1938,189.6002,-21.7198,22.2542,
5.041279,-0.0101,0.0217,1.1335,-3.4895,-3.0934,2.1789,-0.2929,0.3298,0.0131,-1.8750,-39.3188,-26.1938,189.6002,-21.7198,22.2542,
5.045110,0.0371,0.0225,1.0048,-3.4895,-3.0934,2.1789,-0.2929,0.3298,0.0131,-1.8750,-39.3188,-26.1938,189.6002,-21.7198,22.2542,
5.048937,0.0331,0.0242,1.0104,-3.4895,-3.0934,2.1789,-0.2929,0.3298,0.0131,-1.8750,-39.3188,-26.1938,189.6002,-21.7198,22.2542,
5.063496,0.0331,0.0242,1.0104,-3.3030,-2.9620,1.3322,-0.2929,0.3298,0.0131,-1.8750,-39.3188,-26.1938,189.6002,-21.7198,22.2542,
5.069364,0.0331,0.0242,1.0104,-3.3030,-2.9620,1.3322,-0.2929,0.3298,0.0131,-1.8750,-39.3188,-26.1938,188.7118,-20.4570,21.7130,
5.073060,0.0331,0.0242,1.0104,-3.3030,-2.9620,1.3322,-0.3202,0.3198,-0.0104,-1.8750,-39.3188,-26.1938,188.7118,-20.4570,21.7130,
5.087240,0.0331,0.0242,1.0104,-3.3030,-2.9620,1.3322,-0.3202,0.3198,-0.0104,-0.5250,-38.7563,-27.1688,188.7118,-20.4570,21.7130,
5.124008,0.0363,0.0222,1.0138,-3.3030,-2.9620,1.3322,-0.3202,0.3198,-0.0104,-0.5250,-38.7563,-27.1688,188.7118,-20.4570,21.7130,
5.133916,0.0410,0.0195,1.0116,-3.3030,-2.9620,1.3322,-0.3202,0.3198,-0.0104,-0.5250,-38.7563,-27.1688,188.7118,-20.4570,21.7130,
5.137991,0.0417,0.0269,1.0082,-3.3030,-2.9620,1.3322,-0.3202,0.3198,-0.0104,-0.5250,-38.7563,-27.1688,188.7118,-20.4570,21.7130,
5.143892,0.0429,0.0242,1.0114,-3.3030,-2.9620,1.3322,-0.3202,0.3198,-0.0104,-0.5250,-38.7563,-27.1688,188.7118,-20.4570,21.7130,
5.149300,0.0476,0.0256,1.0107,-3.3030,-2.9620,1.3322,-0.3202,0.3198,-0.0104,-0.5250,-38.7563,-27.1688,188.7118,-20.4570,21.7130,
5.154291,0.0476,0.0256,1.0107,-3.3030,-2.9620,1.3322,-0.3294,0.3194,-0.0278,-0.5250,-38.7563,-27.1688,188.7118,-20.4570,21.7130,
5.159833,0.0476,0.0256,1.0107,-3.1253,-2.7558,1.2689,-0.3294,0.3194,-0.0278,-0.5250,-38.7563,-27.1688,188.7118,-20.4570,21.7130,
5.165403,0.0476,0.0256,1.0107,-3.1253,-2.7558,1.2689,-0.3294,0.3194,-0.0278,-0.5250,-38.7563,-27.1688,187.8976,-19.2592,21.1686,
5.169511,0.0476,0.0256,1.0107,-3.1253,-2.7558,1.2689,-0.3294,0.3194,-0.0278,0.4125,-38.0250,-28.1813,187.8976,-19.2592,21.1686,
5.196013,0.0476,0.0256,1.0107,-3.1253,-2.7558,1.2689,-0.3287,0.3184,-0.0416,0.4125,-38.0250,-28.1813,187.8976,-19.2592,21.1686,
5.199469,0.0476,0.0256,1.0107,-3.1253,-2.7558,1.2689,-0.3287,0.3184,-0.0416,0.4125,-38.0250,-28.1813,187.1580,-18.1326,20.6173,
5.201763,0.0476,0.0256,1.0107,-2.8169,-2.6103,1.0644,-0.3287,0.3184,-0.0416,0.4125,-38.0250,-28.1813,187.1580,-18.1326,20.6173,
5.220435,0.0495,0.0266,1.0158,-2.8169,-2.6103,1.0644,-0.3287,0.3184,-0.0416,0.4125,-38.0250,-28.1813,187.1580,-18.1326,20.6173,
5.223508,0.0601,0.0259,1.0055,-2.8169,-2.6103,1.0644,-0.3287,0.3184,-0.0416,0.4125,-38.0250,-28.1813,187.1580,-18.1326,20.6173,
5.225766,0.0630,0.0256,1.0070,-2.8169,-2.6103,1.0644,-0.3287,0.3184,-0.0416,0.4125,-38.0250,-28.1813,187.1580,-18.1326,20.6173,
5.227892,0.0615,0.0273,1.0053,-2.8169,-2.6103,1.0644,-0.3287,0.3184,-0.0416,0.4125,-38.0250,-28.1813,187.1580,-18.1326,20.6173,
5.230006,0.0635,0.0281,1.0053,-2.8169,-2.6103,1.0644,-0.3287,0.3184,-0.0416,0.4125,-38.0250,-28.1813,187.1580,-18.1326,20.6173,
5.232039,0.0635,0.0281,1.0053,-2.8169,-2.6103,1.0644,-0.3287,0.3184,-0.0416,0.9938,-37.4813,-28.9313,187.1580,-18.1326,20.6173,
5.263084,0.0635,0.0281,1.0053,-2.8169,-2.6103,1.0644,-0.3179,0.3070,-0.0511,0.9938,-37.4813,-28.9313,187.1580,-18.1326,20.6173,
5.266477,0.0635,0.0281,1.0053,-2.7281,-2.4302,1.0279,-0.3179,0.3070,-0.0511,0.9938,-37.4813,-28.9313,187.1580,-18.1326,20.6173,
5.268774,0.0635,0.0281,1.0053,-2.7281,-2.4302,1.0279,-0.3179,0.3070,-0.0511,0.9938,-37.4813,-28.9313,186.4942,-17.0748,20.0343,
5.296423,0.0635,0.0281,1.0053,-2.7281,-2.4302,1.0279,-0.3179,0.3070,-0.0511,1.3125,-37.1438,-29.2313,186.4942,-17.0748,20.0343,
5.320720,0.0628,0.0264,1.0072,-2.7281,-2.4302,1.0279,-0.3179,0.3070,-0.0511,1.3125,-37.1438,-29.2313,186.4942,-17.0748,20.0343,
5.328513,0.0571,0.0283,1.0104,-2.7281,-2.4302,1.0279,-0.3179,0.3070,-0.0511,1.3125,-37.1438,-29.2313,186.4942,-17.0748,20.0343,
5.335687,0.0559,0.0298,1.0094,-2.7281,-2.4302,1.0279,-0.3179,0.3070,-0.0511,1.3125,-37.1438,-29.2313,186.4942,-17.0748,20.0343,
5.342516,0.0562,0.0283,1.0082,-2.7281,-2.4302,1.0279,-0.3179,0.3070,-0.0511,1.3125,-37.1438,-29.2313,186.4942,-17.0748,20.0343,
5.346762,0.0574,0.0293,1.0080,-2.7281,-2.4302,1.0279,-0.3179,0.3070,-0.0511,1.3125,-37.1438,-29.2313,186.4942,-17.0748,20.0343,
5.350966,0.0574,0.0293,1.0080,-2.7087,-2.2773,0.9710,-0.3179,0.3070,-0.0511,1.3125,-37.1438,-29.2313,186.4942,-17.0748,20.0343,
5.356334,0.0574,0.0293,1.0080,-2.7087,-2.2773,0.9710,-0.3179,0.3070,-0.0511,1.3125,-37.1438,-29.2313,185.8682,-16.0706,19.3198,
5.361472,0.0574,0.0293,1.0080,-2.7087,-2.2773,0.9710,-0.2982,0.2857,-0.0558,1.3125,-37.1438,-29.2313,185.8682,-16.0706,19.3198,
5.367888,0.0574,0.0293,1.0080,-2.7087,-2.2773,0.9710,-0.2982,0.2857,-0.0558,1.7063,-36.9375,-29.5688,185.8682,-16.0706,19.3198,
5.397464,0.0574,0.0293,1.0080,-2.7087,-2.2773,0.9710,-0.2982,0.2857,-0.0558,1.7063,-36.9375,-29.5688,185.3420,-15.1389,18.5120,
5.405688,0.0574,0.0293,1.0080,-2.7087,-2.2773,0.9710,-0.2738,0.2604,-0.0573,1.7063,-36.9375,-29.5688,185.3420,-15.1389,18.5120,
5.409763,0.0574,0.0293,1.0080,-2.5444,-2.1297,0.9016,-0.2738,0.2604,-0.0573,1.7063,-36.9375,-29.5688,185.3420,-15.1389,18.5120,
5.418033,0.0554,0.0288,1.0094,-2.5444,-2.1297,0.9016,-0.2738,0.2604,-0.0573,1.7063,-36.9375,-29.5688,185.3420,-15.1389,18.5120,
5.423383,0.0571,0.0308,1.0070,-2.5444,-2.1297,0.9016,-0.2738,0.2604,-0.0573,1.7063,-36.9375,-29.5688,185.3420,-15.1389,18.5120,
5.425241,0.0571,0.0320,1.0065,-2.5444,-2.1297,0.9016,-0.2738,0.2604,-0.0573,1.7063,-36.9375,-29.5688,185.3420,-15.1389,18.5120,
5.426843,0.0586,0.0305,1.0077,-2.5444,-2.1297,0.9016,-0.2738,0.2604,-0.0573,1.7063,-36.9375,-29.5688,185.3420,-15.1389,18.5120,
5.428594,0.0642,0.0293,1.0099,-2.5444,-2.1297,0.9016,-0.2738,0.2604,-0.0573,1.7063,-36.9375,-29.5688,185.3420,-15.1389,18.5120,
5.437128,0.0642,0.0293,1.0099,-2.5444,-2.1297,0.9016,-0.2738,0.2604,-0.0573,2.0063,-36.7875,-29.7188,185.3420,-15.1389,18.5120,
5.463119,0.0642,0.0293,1.0099,-2.5444,-2.1297,0.9016,-0.2738,0.2604,-0.0573,2.0063,-36.7875,-29.7188,184.9916,-14.4368,17.6538,
5.473933,0.0642,0.0293,1.0099,-2.3234,-2.0405,0.8140,-0.2738,0.2604,-0.0573,2.0063,-36.7875,-29.7188,184.9916,-14.4368,17.6538,
5.482268,0.0642,0.0293,1.0099,-2.3234,-2.0405,0.8140,-0.2486,0.2349,-0.0577,2.0063,-36.7875,-29.7188,184.9916,-14.4368,17.6538,
5.506903,0.0642,0.0293,1.0099,-2.3234,-2.0405,0.8140,-0.2486,0.2349,-0.0577,2.1000,-36.7688,-29.7750,184.9916,-14.4368,17.6538,
5.518118,0.0647,0.0310,1.0065,-2.3234,-2.0405,0.8140,-0.2486,0.2349,-0.0577,2.1000,-36.7688,-29.7750,184.9916,-14.4368,17.6538,
5.527812,0.0671,0.0295,1.0075,-2.3234,-2.0405,0.8140,-0.2486,0.2349,-0.0577,2.1000,-36.7688,-29.7750,184.9916,-14.4368,17.6538,
5.536380,0.0691,0.0310,1.0080,-2.3234,-2.0405,0.8140,-0.2486,0.2349,-0.0577,2.1000,-36.7688,-29.7750,184.9916,-14.4368,17.6538,
5.542418,0.0725,0.0317,1.0068,-2.3234,-2.0405,0.8140,-0.2486,0.2349,-0.0577,2.1000,-36.7688,-29.7750,184.9916,-14.4368,17.6538,
5.544309,0.0750,0.0320,1.0043,-2.3234,-2.0405,0.8140,-0.2486,0.2349,-0.0577,2.1000,-36.7688,-29.7750,184.9916,-14.4368,17.6538,
5.545918,0.0750,0.0320,1.0043,-2.3234,-2.0405,0.8140,-0.2244,0.2103,-0.0581,2.1000,-36.7688,-29.7750,184.9916,-14.4368,17.6538,
5.548064,0.0750,0.0320,1.0043,-2.3234,-2.0405,0.8140,-0.2244,0.2103,-0.0581,2.1000,-36.7688,-29.7750,184.7519,-13.8400,16.7575,
5.549835,0.0750,0.0320,1.0043,-2.1098,-1.9330,0.7509,-0.2244,0.2103,-0.0581,2.1000,-36.7688,-29.7750,184.7519,-13.8400,16.7575,
5.578581,0.0750,0.0320,1.0043,-2.1098,-1.9330,0.7509,-0.2244,0.2103,-0.0581,2.0438,-36.7500,-29.7563,184.7519,-13.8400,16.7575,
5.604072,0.0750,0.0320,1.0043,-2.1098,-1.9330,0.7509,-0.2244,0.2103,-0.0581,2.0438,-36.7500,-29.7563,184.5908,-13.2431,15.8847,
5.617904,0.0750,0.0320,1.0043,-1.9712,-1.7948,0.6585,-0.2244,0.2103,-0.0581,2.0438,-36.7500,-29.7563,184.5908,-13.2431,15.8847,
5.626777,0.0750,0.0320,1.0043,-1.9712,-1.7948,0.6585,-0.2018,0.1861,-0.0584,2.0438,-36.7500,-29.7563,184.5908,-13.2431,15.8847,
5.634573,0.0754,0.0335,1.0065,-1.9712,-1.7948,0.6585,-0.2018,0.1861,-0.0584,2.0438,-36.7500,-29.7563,184.5908,-13.2431,15.8847,
5.641834,0.0728,0.0344,1.0038,-1.9712,-1.7948,0.6585,-0.2018,0.1861,-0.0584,2.0438,-36.7500,-29.7563,184.5908,-13.2431,15.8847,
5.644005,0.0715,0.0371,1.0048,-1.9712,-1.7948,0.6585,-0.2018,0.1861,-0.0584,2.0438,-36.7500,-29.7563,184.5908,-13.2431,15.8847,
5.645701,0.0703,0.0364,1.0050,-1.9712,-1.7948,0.6585,-0.2018,0.1861,-0.0584,2.0438,-36.7500,-29.7563,184.5908,-13.2431,15.8847,
5.647425,0.0767,0.0352,1.0033,-1.9712,-1.7948,0.6585,-0.2018,0.1861,-0.0584,2.0438,-36.7500,-29.7563,184.5908,-13.2431,15.8847,
5.649103,0.0767,0.0352,1.0033,-1.9712,-1.7948,0.6585,-0.2018,0.1861,-0.0584,2.0063,-36.6750,-29.7938,184.5908,-13.2431,15.8847,
5.662972,0.0767,0.0352,1.0033,-1.9712,-1.7948,0.6585,-0.1808,0.1627,-0.0578,2.0063,-36.6750,-29.7938,184.5908,-13.2431,15.8847,
5.666207,0.0767,0.0352,1.0033,-1.7801,-1.6981,0.5574,-0.1808,0.1627,-0.0578,2.0063,-36.6750,-29.7938,184.5908,-13.2431,15.8847,
5.668498,0.0767,0.0352,1.0033,-1.7801,-1.6981,0.5574,-0.1808,0.1627,-0.0578,2.0063,-36.6750,-29.7938,184.4489,-12.5868,15.0165,
5.712757,0.0789,0.0349,1.0014,-1.7801,-1.6981,0.5574,-0.1808,0.1627,-0.0578,2.0063,-36.6750,-29.7938,184.4489,-12.5868,15.0165,
5.723795,0.0779,0.0435,1.0002,-1.7801,-1.6981,0.5574,-0.1808,0.1627,-0.0578,2.0063,-36.6750,-29.7938,184.4489,-12.5868,15.0165,
5.730086,0.0507,0.0144,1.0063,-1.7801,-1.6981,0.5574,-0.1808,0.1627,-0.0578,2.0063,-36.6750,-29.7938,184.4489,-12.5868,15.0165,
5.739938,0.0497,0.0215,1.0253,-1.7801,-1.6981,0.5574,-0.1808,0.1627,-0.0578,2.0063,-36.6750,-29.7938,184.4489,-12.5868,15.0165,
5.743744,0.0664,0.0720,0.9960,-1.7801,-1.6981,0.5574,-0.1808,0.1627,-0.0578,2.0063,-36.6750,-29.7938,184.4489,-12.5868,15.0165,
5.745467,0.0664,0.0720,0.9960,-1.7801,-1.6981,0.5574,-0.1808,0.1627,-0.0578,1.9500,-36.6375,-29.8125,184.4489,-12.5868,15.0165,
5.747147,0.0664,0.0720,0.9960,-1.7878,-1.1074,0.2899,-0.1808,0.1627,-0.0578,1.9500,-36.6375,-29.8125,184.4489,-12.5868,15.0165,
5.748897,0.0664,0.0720,0.9960,-1.7878,-1.1074,0.2899,-0.1808,0.1627,-0.0578,1.9500,-36.6375,-29.8125,184.3724,-11.8538,14.2824,
5.750659,0.0664,0.0720,0.9960,-1.7878,-1.1074,0.2899,-0.1610,0.1425,-0.0550,1.9500,-36.6375,-29.8125,184.3724,-11.8538,14.2824,
5.786833,0.0664,0.0720,0.9960,-1.7878,-1.1074,0.2899,-0.1610,0.1425,-0.0550,1.8375,-36.1875,-30.2063,184.3724,-11.8538,14.2824,
5.801725,0.0664,0.0720,0.9960,-1.7878,-1.1074,0.2899,-0.1610,0.1425,-0.0550,1.8375,-36.1875,-30.2063,184.3112,-11.1151,13.5935,
5.814357,0.0664,0.0720,0.9960,-2.7700,-2.7932,2.3110,-0.1610,0.1425,-0.0550,1.8375,-36.1875,-30.2063,184.3112,-11.1151,13.5935,
5.824277,0.0664,0.0720,0.9960,-2.7700,-2.7932,2.3110,-0.1426,0.1275,-0.0507,1.8375,-36.1875,-30.2063,184.3112,-11.1151,13.5935,
5.831361,0.0510,0.1339,0.9215,-2.7700,-2.7932,2.3110,-0.1426,0.1275,-0.0507,1.8375,-36.1875,-30.2063,184.3112,-11.1151,13.5935,
5.836472,-0.0035,0.2929,0.8592,-2.7700,-2.7932,2.3110,-0.1426,0.1275,-0.0507,1.8375,-36.1875,-30.2063,184.3112,-11.1151,13.5935,
5.842149,-0.0313,-0.0284,1.1216,-2.7700,-2.7932,2.3110,-0.1426,0.1275,-0.0507,1.8375,-36.1875,-30.2063,184.3112,-11.1151,13.5935,
5.844000,0.1284,-0.0228,0.9613,-2.7700,-2.7932,2.3110,-0.1426,0.1275,-0.0507,1.8375,-36.1875,-30.2063,184.3112,-11.1151,13.5935,
5.845753,0.3058,-0.2475,0.7998,-2.7700,-2.7932,2.3110,-0.1426,0.1275,-0.0507,1.8375,-36.1875,-30.2063,184.3112,-11.1151,13.5935,
5.857452,0.3058,-0.2475,0.7998,-2.7700,-2.7932,2.3110,-0.1426,0.1275,-0.0507,1.6500,-33.8625,-31.9500,184.3112,-11.1151,13.5935,
5.862367,0.3058,-0.2475,0.7998,-2.7700,-2.7932,2.3110,-0.1305,0.1160,-0.0458,1.6500,-33.8625,-31.9500,184.3112,-11.1151,13.5935,
5.868790,0.3058,-0.2475,0.7998,-0.9770,-9.4847,-2.7121,-0.1305,0.1160,-0.0458,1.6500,-33.8625,-31.9500,184.3112,-11.1151,13.5935,
5.876787,0.3058,-0.2475,0.7998,-0.9770,-9.4847,-2.7121,-0.1305,0.1160,-0.0458,1.6500,-33.8625,-31.9500,184.2300,-10.0466,12.9486,
5.907540,0.2064,-0.5558,0.7918,-0.9770,-9.4847,-2.7121,-0.1305,0.1160,-0.0458,1.6500,-33.8625,-31.9500,184.2300,-10.0466,12.9486,
5.910512,0.0270,-0.9220,0.5533,-0.9770,-9.4847,-2.7121,-0.1305,0.1160,-0.0458,1.6500,-33.8625,-31.9500,184.2300,-10.0466,12.9486,
5.912486,-0.3523,-1.0623,1.5367,-0.9770,-9.4847,-2.7121,-0.1305,0.1160,-0.0458,1.6500,-33.8625,-31.9500,184.2300,-10.0466,12.9486,
5.915142,-0.5800,-0.6707,2.5860,-0.9770,-9.4847,-2.7121,-0.1305,0.1160,-0.0458,1.6500,-33.8625,-31.9500,184.2300,-10.0466,12.9486,
5.917441,-0.7012,-0.5074,1.1942,-0.9770,-9.4847,-2.7121,-0.1305,0.1160,-0.0458,1.6500,-33.8625,-31.9500,184.2300,-10.0466,12.9486,
5.926091,-0.7012,-0.5074,1.1942,-0.9770,-9.4847,-2.7121,-0.1305,0.1160,-0.0458,2.2875,-28.3688,-33.7125,184.2300,-10.0466,12.9486,
5.928068,-0.7012,-0.5074,1.1942,-0.9770,-9.4847,-2.7121,-0.1486,0.1197,-0.0316,2.2875,-28.3688,-33.7125,184.2300,-10.0466,12.9486,
5.929097,-0.7012,-0.5074,1.1942,-0.9770,-9.4847,-2.7121,-0.1486,0.1197,-0.0316,2.2875,-28.3688,-33.7125,184.1273,-8.8250,12.1443,
5.930090,-0.7012,-0.5074,1.1942,-8.8057,-6.4057,2.2623,-0.1486,0.1197,-0.0316,2.2875,-28.3688,-33.7125,184.1273,-8.8250,12.1443,
5.995789,-0.7012,-0.5074,1.1942,-8.8057,-6.4057,2.2623,-0.1486,0.1197,-0.0316,3.5438,-21.9188,-35.4188,184.1273,-8.8250,12.1443,
5.998267,-0.7012,-0.5074,1.1942,-8.8057,-6.4057,2.2623,-0.2267,0.1658,-0.0041,3.5438,-21.9188,-35.4188,184.1273,-8.8250,12.1443,
5.999581,-0.7012,-0.5074,1.1942,-8.8057,-6.4057,2.2623,-0.2267,0.1658,-0.0041,3.5438,-21.9188,-35.4188,184.1207,-7.6887,11.1511,
6.001320,-0.7012,-0.5074,1.1942,-3.1853,-1.4481,8.7707,-0.2267,0.1658,-0.0041,3.5438,-21.9188,-35.4188,184.1207,-7.6887,11.1511,
6.005498,-0.5097,-0.4038,1.7978,-3.1853,-1.4481,8.7707,-0.2267,0.1658,-0.0041,3.5438,-21.9188,-35.4188,184.1207,-7.6887,11.1511,
6.007665,-0.3550,-0.2548,1.8372,-3.1853,-1.4481,8.7707,-0.2267,0.1658,-0.0041,3.5438,-21.9188,-35.4188,184.1207,-7.6887,11.1511,
6.009879,-0.2116,-0.1041,1.7546,-3.1853,-1.4481,8.7707,-0.2267,0.1658,-0.0041,3.5438,-21.9188,-35.4188,184.1207,-7.6887,11.1511,
6.012024,-0.0988,-0.0230,1.8342,-3.1853,-1.4481,8.7707,-0.2267,0.1658,-0.0041,3.5438,-21.9188,-35.4188,184.1207,-7.6887,11.1511,
6.014166,0.0192,-0.0203,1.6940,-3.1853,-1.4481,8.7707,-0.2267,0.1658,-0.0041,3.5438,-21.9188,-35.4188,184.1207,-7.6887,11.1511,
6.062111,0.0192,-0.0203,1.6940,-3.1853,-1.4481,8.7707,-0.2267,0.1658,-0.0041,3.5438,-21.9188,-35.4188,184.3165,-6.3500,10.2014,
6.065549,0.0192,-0.0203,1.6940,-3.1853,-1.4481,8.7707,-0.3424,0.2443,-0.0029,3.5438,-21.9188,-35.4188,184.3165,-6.3500,10.2014,
6.067722,0.0192,-0.0203,1.6940,0.3647,-3.1005,4.2601,-0.3424,0.2443,-0.0029,3.5438,-21.9188,-35.4188,184.3165,-6.3500,10.2014,
6.069946,0.0192,-0.0203,1.6940,0.3647,-3.1005,4.2601,-0.3424,0.2443,-0.0029,4.9125,-15.6000,-37.1250,184.3165,-6.3500,10.2014,
6.104378,0.0711,0.0188,1.7162,0.3647,-3.1005,4.2601,-0.3424,0.2443,-0.0029,4.9125,-15.6000,-37.1250,184.3165,-6.3500,10.2014,
6.113606,0.1847,-0.1505,1.4802,0.3647,-3.1005,4.2601,-0.3424,0.2443,-0.0029,4.9125,-15.6000,-37.1250,184.3165,-6.3500,10.2014,
6.120028,0.1768,-0.2553,1.4328,0.3647,-3.1005,4.2601,-0.3424,0.2443,-0.0029,4.9125,-15.6000,-37.1250,184.3165,-6.3500,10.2014,
6.123517,0.1116,-0.4305,1.1839,0.3647,-3.1005,4.2601,-0.3424,0.2443,-0.0029,4.9125,-15.6000,-37.1250,184.3165,-6.3500,10.2014,
6.125252,0.0092,-0.5363,0.4988,0.3647,-3.1005,4.2601,-0.3424,0.2443,-0.0029,4.9125,-15.6000,-37.1250,184.3165,-6.3500,10.2014,
6.130673,0.0092,-0.5363,0.4988,0.3647,-3.1005,4.2601,-0.4208,0.2982,-0.0920,4.9125,-15.6000,-37.1250,184.3165,-6.3500,10.2014,
6.133477,0.0092,-0.5363,0.4988,-3.3507,-4.7795,-5.7600,-0.4208,0.2982,-0.0920,4.9125,-15.6000,-37.1250,184.3165,-6.3500,10.2014,
6.135254,0.0092,-0.5363,0.4988,-3.3507,-4.7795,-5.7600,-0.4208,0.2982,-0.0920,4.9125,-15.6000,-37.1250,184.6909,-4.9826,9.2337,
6.137018,0.0092,-0.5363,0.4988,-3.3507,-4.7795,-5.7600,-0.4208,0.2982,-0.0920,6.0188,-10.9500,-39.3563,184.6909,-4.9826,9.2337,
6.199605,0.0092,-0.5363,0.4988,-9.0863,-5.1828,1.6243,-0.4208,0.2982,-0.0920,6.0188,-10.9500,-39.3563,184.6909,-4.9826,9.2337,
6.212692,0.0092,-0.5363,0.4988,-9.0863,-5.1828,1.6243,-0.4208,0.2982,-0.0920,6.0188,-10.9500,-39.3563,184.9159,-3.4700,7.9271,
6.221322,0.0092,-0.5363,0.4988,-9.0863,-5.1828,1.6243,-0.4210,0.3064,-0.2688,6.0188,-10.9500,-39.3563,184.9159,-3.4700,7.9271,
6.225164,-0.2659,-0.3518,0.4725,-9.0863,-5.1828,1.6243,-0.4210,0.3064,-0.2688,6.0188,-10.9500,-39.3563,184.9159,-3.4700,7.9271,
6.231651,-0.6318,-0.3518,0.5374,-9.0863,-5.1828,1.6243,-0.4210,0.3064,-0.2688,6.0188,-10.9500,-39.3563,184.9159,-3.4700,7.9271,
6.238511,-0.9260,-0.3501,0.6329,-9.0863,-5.1828,1.6243,-0.4210,0.3064,-0.2688,6.0188,-10.9500,-39.3563,184.9159,-3.4700,7.9271,
6.242072,-0.8495,-0.4092,1.1243,-9.0863,-5.1828,1.6243,-0.4210,0.3064,-0.2688,6.0188,-10.9500,-39.3563,184.9159,-3.4700,7.9271,
6.243284,-0.6028,-0.6022,1.0390,-9.0863,-5.1828,1.6243,-0.4210,0.3064,-0.2688,6.0188,-10.9500,-39.3563,184.9159,-3.4700,7.9271,
6.244440,-0.6028,-0.6022,1.0390,-9.0863,-5.1828,1.6243,-0.4210,0.3064,-0.2688,6.3188,-8.1750,-41.5312,184.9159,-3.4700,7.9271,
6.262404,-0.6028,-0.6022,1.0390,-9.0863,-5.1828,1.6243,-0.3928,0.3125,-0.3960,6.3188,-8.1750,-41.5312,184.9159,-3.4700,7.9271,
6.265426,-0.6028,-0.6022,1.0390,-9.0863,-5.1828,1.6243,-0.3928,0.3125,-0.3960,6.3188,-8.1750,-41.5312,185.4204,-2.0217,6.9605,
6.267636,-0.6028,-0.6022,1.0390,4.5379,-7.9645,4.9526,-0.3928,0.3125,-0.3960,6.3188,-8.1750,-41.5312,185.4204,-2.0217,6.9605,
6.275764,-0.6028,-0.6022,1.0390,4.5379,-7.9645,4.9526,-0.3928,0.3125,-0.3960,6.1688,-6.9188,-43.0312,185.4204,-2.0217,6.9605,
6.301259,-0.1738,-0.6340,1.1956,4.5379,-7.9645,4.9526,-0.3928,0.3125,-0.3960,6.1688,-6.9188,-43.0312,185.4204,-2.0217,6.9605,
6.304383,0.3686,-0.7432,1.3900,4.5379,-7.9645,4.9526,-0.3928,0.3125,-0.3960,6.1688,-6.9188,-43.0312,185.4204,-2.0217,6.9605,
6.306574,0.6156,-0.7691,1.4907,4.5379,-7.9645,4.9526,-0.3928,0.3125,-0.3960,6.1688,-6.9188,-43.0312,185.4204,-2.0217,6.9605,
6.308790,0.5032,-0.7420,1.5132,4.5379,-7.9645,4.9526,-0.3928,0.3125,-0.3960,6.1688,-6.9188,-43.0312,185.4204,-2.0217,6.9605,
6.310912,-0.0172,-0.8223,1.8054,4.5379,-7.9645,4.9526,-0.3928,0.3125,-0.3960,6.1688,-6.9188,-43.0312,185.4204,-2.0217,6.9605,
6.329079,-0.0172,-0.8223,1.8054,4.5379,-7.9645,4.9526,-0.4109,0.3412,-0.2970,6.1688,-6.9188,-43.0312,185.4204,-2.0217,6.9605,
6.332320,-0.0172,-0.8223,1.8054,4.5379,-7.9645,4.9526,-0.4109,0.3412,-0.2970,6.1688,-6.9188,-43.0312,185.7537,-0.3798,5.9742,
6.334546,-0.0172,-0.8223,1.8054,-4.4977,-10.6111,9.0218,-0.4109,0.3412,-0.2970,6.1688,-6.9188,-43.0312,185.7537,-0.3798,5.9742,
6.348245,-0.0172,-0.8223,1.8054,-4.4977,-10.6111,9.0218,-0.4109,0.3412,-0.2970,6.0188,-7.5750,-42.9375,185.7537,-0.3798,5.9742,
6.395937,-0.0172,-0.8223,1.8054,-4.4977,-10.6111,9.0218,-0.5041,0.3338,-0.0081,6.0188,-7.5750,-42.9375,185.7537,-0.3798,5.9742,
6.407235,-0.0172,-0.8223,1.8054,0.6282,-10.9163,-2.4520,-0.5041,0.3338,-0.0081,6.0188,-7.5750,-42.9375,185.7537,-0.3798,5.9742,
6.417480,-0.0172,-0.8223,1.8054,0.6282,-10.9163,-2.4520,-0.5041,0.3338,-0.0081,6.0188,-7.5750,-42.9375,185.8999,1.6531,5.1175,
6.425920,-0.3418,-1.0344,1.9239,0.6282,-10.9163,-2.4520,-0.5041,0.3338,-0.0081,6.0188,-7.5750,-42.9375,185.8999,1.6531,5.1175,
6.435438,-0.2913,-1.1754,1.6771,0.6282,-10.9163,-2.4520,-0.5041,0.3338,-0.0081,6.0188,-7.5750,-42.9375,185.8999,1.6531,5.1175,
6.443478,-0.1415,-1.2311,1.2242,0.6282,-10.9163,-2.4520,-0.5041,0.3338,-0.0081,6.0188,-7.5750,-42.9375,185.8999,1.6531,5.1175,
6.447608,-0.0181,-1.1874,0.8976,0.6282,-10.9163,-2.4520,-0.5041,0.3338,-0.0081,6.0188,-7.5750,-42.9375,185.8999,1.6531,5.1175,
6.449386,0.2047,-1.1492,0.7504,0.6282,-10.9163,-2.4520,-0.5041,0.3338,-0.0081,6.0188,-7.5750,-42.9375,185.8999,1.6531,5.1175,
6.451087,0.2047,-1.1492,0.7504,0.6282,-10.9163,-2.4520,-0.5041,0.3338,-0.0081,6.1125,-11.1938,-40.0500,185.8999,1.6531,5.1175,
6.463564,0.2047,-1.1492,0.7504,0.6282,-10.9163,-2.4520,-0.6474,0.2373,0.2317,6.1125,-11.1938,-40.0500,185.8999,1.6531,5.1175,
6.467709,0.2047,-1.1492,0.7504,-0.9594,-10.3734,-6.9015,-0.6474,0.2373,0.2317,6.1125,-11.1938,-40.0500,185.8999,1.6531,5.1175,
6.469966,0.2047,-1.1492,0.7504,-0.9594,-10.3734,-6.9015,-0.6474,0.2373,0.2317,6.1125,-11.1938,-40.0500,185.7292,3.7679,4.1507,
6.488153,0.2047,-1.1492,0.7504,-0.9594,-10.3734,-6.9015,-0.6474,0.2373,0.2317,5.2688,-17.7750,-36.0188,185.7292,3.7679,4.1507,
6.499641,0.4370,-1.2274,0.6555,-0.9594,-10.3734,-6.9015,-0.6474,0.2373,0.2317,5.2688,-17.7750,-36.0188,185.7292,3.7679,4.1507,
6.508600,0.4668,-1.2814,0.5240,-0.9594,-10.3734,-6.9015,-0.6474,0.2373,0.2317,5.2688,-17.7750,-36.0188,185.7292,3.7679,4.1507,
6.518179,0.0776,-1.1581,0.3362,-0.9594,-10.3734,-6.9015,-0.6474,0.2373,0.2317,5.2688,-17.7750,-36.0188,185.7292,3.7679,4.1507,
6.523314,-0.2114,-0.9971,0.3092,-0.9594,-10.3734,-6.9015,-0.6474,0.2373,0.2317,5.2688,-17.7750,-36.0188,185.7292,3.7679,4.1507,
6.525194,-0.4462,-0.6528,0.5235,-0.9594,-10.3734,-6.9015,-0.6474,0.2373,0.2317,5.2688,-17.7750,-36.0188,185.7292,3.7679,4.1507,
6.529634,-0.4462,-0.6528,0.5235,-0.9594,-10.3734,-6.9015,-0.7965,0.0998,0.3013,5.2688,-17.7750,-36.0188,185.7292,3.7679,4.1507,
6.532083,-0.4462,-0.6528,0.5235,-2.3840,-4.0337,-7.3948,-0.7965,0.0998,0.3013,5.2688,-17.7750,-36.0188,185.7292,3.7679,4.1507,
6.534033,-0.4462,-0.6528,0.5235,-2.3840,-4.0337,-7.3948,-0.7965,0.0998,0.3013,5.2688,-17.7750,-36.0188,185.3310,5.8990,3.0715,
6.556482,-0.4462,-0.6528,0.5235,-2.3840,-4.0337,-7.3948,-0.7965,0.0998,0.3013,3.8063,-25.5188,-32.5125,185.3310,5.8990,3.0715,
6.596833,-0.4462,-0.6528,0.5235,-2.3840,-4.0337,-7.3948,-0.7965,0.0998,0.3013,3.8063,-25.5188,-32.5125,185.3423,7.6766,2.6010,
6.607066,-0.4462,-0.6528,0.5235,6.8663,3.2404,17.9056,-0.7965,0.0998,0.3013,3.8063,-25.5188,-32.5125,185.3423,7.6766,2.6010,
6.617204,-0.4462,-0.6528,0.5235,6.8663,3.2404,17.9056,-0.9053,-0.0013,0.2668,3.8063,-25.5188,-32.5125,185.3423,7.6766,2.6010,
6.626844,-0.5746,-0.5744,0.6972,6.8663,3.2404,17.9056,-0.9053,-0.0013,0.2668,3.8063,-25.5188,-32.5125,185.3423,7.6766,2.6010,
6.635853,0.3107,-0.0941,0.2076,6.8663,3.2404,17.9056,-0.9053,-0.0013,0.2668,3.8063,-25.5188,-32.5125,185.3423,7.6766,2.6010,
6.642236,1.6722,0.4177,0.5765,6.8663,3.2404,17.9056,-0.9053,-0.0013,0.2668,3.8063,-25.5188,-32.5125,185.3423,7.6766,2.6010,
6.644077,0.6085,-0.2924,3.3286,6.8663,3.2404,17.9056,-0.9053,-0.0013,0.2668,3.8063,-25.5188,-32.5125,185.3423,7.6766,2.6010,
6.645836,0.7087,0.1309,3.2004,6.8663,3.2404,17.9056,-0.9053,-0.0013,0.2668,3.8063,-25.5188,-32.5125,185.3423,7.6766,2.6010,
6.647479,0.7087,0.1309,3.2004,6.8663,3.2404,17.9056,-0.9053,-0.0013,0.2668,2.0063,-32.8875,-29.7375,185.3423,7.6766,2.6010,
6.662447,0.7087,0.1309,3.2004,6.8663,3.2404,17.9056,-0.8803,-0.0380,0.2168,2.0063,-32.8875,-29.7375,185.3423,7.6766,2.6010,
6.671451,0.7087,0.1309,3.2004,6.8663,3.2404,17.9056,-0.8803,-0.0380,0.2168,2.0063,-32.8875,-29.7375,185.1929,9.0895,1.9572,
6.678755,0.7087,0.1309,3.2004,6.9764,3.4801,17.9365,-0.8803,-0.0380,0.2168,2.0063,-32.8875,-29.7375,185.1929,9.0895,1.9572,
6.694391,0.1423,0.2641,0.5931,6.9764,3.4801,17.9365,-0.8803,-0.0380,0.2168,2.0063,-32.8875,-29.7375,185.1929,9.0895,1.9572,
6.697169,-0.6296,0.1837,-1.2827,6.9764,3.4801,17.9365,-0.8803,-0.0380,0.2168,2.0063,-32.8875,-29.7375,185.1929,9.0895,1.9572,
6.698959,-0.3062,0.2035,0.2807,6.9764,3.4801,17.9365,-0.8803,-0.0380,0.2168,2.0063,-32.8875,-29.7375,185.1929,9.0895,1.9572,
6.700885,0.5123,0.0038,1.7734,6.9764,3.4801,17.9365,-0.8803,-0.0380,0.2168,2.0063,-32.8875,-29.7375,185.1929,9.0895,1.9572,
6.702956,0.4866,0.0104,2.0319,6.9764,3.4801,17.9365,-0.8803,-0.0380,0.2168,2.0063,-32.8875,-29.7375,185.1929,9.0895,1.9572,
6.705134,0.4866,0.0104,2.0319,6.9764,3.4801,17.9365,-0.8803,-0.0380,0.2168,0.3563,-38.4563,-26.8125,185.1929,9.0895,1.9572,
6.729432,0.4866,0.0104,2.0319,6.9764,3.4801,17.9365,-0.6429,-0.0371,0.1835,0.3563,-38.4563,-26.8125,185.1929,9.0895,1.9572,
6.732682,0.4866,0.0104,2.0319,6.9764,3.4801,17.9365,-0.6429,-0.0371,0.1835,0.3563,-38.4563,-26.8125,185.1161,10.1685,1.4884,
6.734894,0.4866,0.0104,2.0319,3.0151,1.8046,6.0131,-0.6429,-0.0371,0.1835,0.3563,-38.4563,-26.8125,185.1161,10.1685,1.4884,
6.767574,0.4866,0.0104,2.0319,3.0151,1.8046,6.0131,-0.6429,-0.0371,0.1835,-0.3375,-41.9625,-24.4500,185.1161,10.1685,1.4884,
6.793417,-0.2612,0.1199,1.2850,3.0151,1.8046,6.0131,-0.6429,-0.0371,0.1835,-0.3375,-41.9625,-24.4500,185.1161,10.1685,1.4884,
6.803827,0.0236,0.0945,0.6884,3.0151,1.8046,6.0131,-0.6429,-0.0371,0.1835,-0.3375,-41.9625,-24.4500,185.1161,10.1685,1.4884,
6.811447,0.0327,0.0640,0.7368,3.0151,1.8046,6.0131,-0.6429,-0.0371,0.1835,-0.3375,-41.9625,-24.4500,185.1161,10.1685,1.4884,
6.818861,0.1734,-0.0267,1.6517,3.0151,1.8046,6.0131,-0.6429,-0.0371,0.1835,-0.3375,-41.9625,-24.4500,185.1161,10.1685,1.4884,
6.823011,-0.1760,0.0131,1.7614,3.0151,1.8046,6.0131,-0.6429,-0.0371,0.1835,-0.3375,-41.9625,-24.4500,185.1161,10.1685,1.4884,
6.824953,-0.1760,0.0131,1.7614,3.0151,1.8046,6.0131,-0.2559,-0.0310,0.1730,-0.3375,-41.9625,-24.4500,185.1161,10.1685,1.4884,
6.826701,-0.1760,0.0131,1.7614,3.0151,1.8046,6.0131,-0.2559,-0.0310,0.1730,-0.3375,-41.9625,-24.4500,185.0389,10.8252,1.0768,
6.828482,-0.1760,0.0131,1.7614,1.2660,2.6480,-3.7363,-0.2559,-0.0310,0.1730,-0.3375,-41.9625,-24.4500,185.0389,10.8252,1.0768,
6.838581,-0.1760,0.0131,1.7614,1.2660,2.6480,-3.7363,-0.2559,-0.0310,0.1730,-0.3938,-43.7438,-23.0063,185.0389,10.8252,1.0768,
6.863023,-0.1760,0.0131,1.7614,1.2660,2.6480,-3.7363,0.1039,-0.0273,0.1796,-0.3938,-43.7438,-23.0063,185.0389,10.8252,1.0768,
6.874444,-0.1760,0.0131,1.7614,1.5344,2.1708,-2.4757,0.1039,-0.0273,0.1796,-0.3938,-43.7438,-23.0063,185.0389,10.8252,1.0768,
6.884599,-0.1760,0.0131,1.7614,1.5344,2.1708,-2.4757,0.1039,-0.0273,0.1796,-0.3938,-43.7438,-23.0063,185.0389,10.8252,1.0768,
6.892050,0.1778,0.0315,0.6967,1.5344,2.1708,-2.4757,0.1039,-0.0273,0.1796,-0.3938,-43.7438,-23.0063,185.0389,10.8252,1.0768,
6.899956,-0.0394,0.0254,1.2992,1.5344,2.1708,-2.4757,0.1039,-0.0273,0.1796,-0.3938,-43.7438,-23.0063,185.0389,10.8252,1.0768,
6.903631,0.0947,0.0256,0.9168,1.5344,2.1708,-2.4757,0.1039,-0.0273,0.1796,-0.3938,-43.7438,-23.0063,185.0389,10.8252,1.0768,
6.905369,0.0432,0.0261,1.0551,1.5344,2.1708,-2.4757,0.1039,-0.0273,0.1796,-0.3938,-43.7438,-23.0063,185.0389,10.8252,1.0768,
6.907504,0.0632,0.0278,1.0104,1.5344,2.1708,-2.4757,0.1039,-0.0273,0.1796,-0.3938,-43.7438,-23.0063,185.0389,10.8252,1.0768,
6.909138,0.0632,0.0278,1.0104,1.5344,2.1708,-2.4757,0.1039,-0.0273,0.1796,-0.3188,-43.9313,-22.7250,185.0389,10.8252,1.0768,
6.929945,0.0632,0.0278,1.0104,1.5344,2.1708,-2.4757,0.3176,-0.0301,0.1785,-0.3188,-43.9313,-22.7250,185.0389,10.8252,1.0768,
6.933133,0.0632,0.0278,1.0104,0.5155,2.1346,0.1699,0.3176,-0.0301,0.1785,-0.3188,-43.9313,-22.7250,185.0389,10.8252,1.0768,
6.935322,0.0632,0.0278,1.0104,0.5155,2.1346,0.1699,0.3176,-0.0301,0.1785,-0.3188,-43.9313,-22.7250,185.0389,10.8252,1.0768,
6.976374,0.0632,0.0278,1.0104,0.5155,2.1346,0.1699,0.3176,-0.0301,0.1785,-0.3188,-43.2938,-24.0563,185.0389,10.8252,1.0768,
6.991882,0.0723,0.0269,1.0011,0.5155,2.1346,0.1699,0.3176,-0.0301,0.1785,-0.3188,-43.2938,-24.0563,185.0389,10.8252,1.0768,
7.002437,0.0693,0.0293,1.0092,0.5155,2.1346,0.1699,0.3176,-0.0301,0.1785,-0.3188,-43.2938,-24.0563,185.0389,10.8252,1.0768,
7.010047,0.0696,0.0303,1.0046,0.5155,2.1346,0.1699,0.3176,-0.0301,0.1785,-0.3188,-43.2938,-24.0563,185.0389,10.8252,1.0768,
7.017429,0.0723,0.0354,1.0087,0.5155,2.1346,0.1699,0.3176,-0.0301,0.1785,-0.3188,-43.2938,-24.0563,185.0389,10.8252,1.0768,
7.022853,0.0823,0.0266,1.0104,0.5155,2.1346,0.1699,0.3176,-0.0301,0.1785,-0.3188,-43.2938,-24.0563,185.0389,10.8252,1.0768,
7.024603,0.0823,0.0266,1.0104,0.5155,2.1346,0.1699,0.4031,-0.0443,0.1527,-0.3188,-43.2938,-24.0563,185.0389,10.8252,1.0768,
7.026329,0.0823,0.0266,1.0104,0.5155,2.1346,0.1699,0.4031,-0.0443,0.1527,-0.3188,-43.2938,-24.0563,184.9087,10.9832,0.6551,
7.028074,0.0823,0.0266,1.0104,0.5577,2.1576,0.2230,0.4031,-0.0443,0.1527,-0.3188,-43.2938,-24.0563,184.9087,10.9832,0.6551,
7.048442,0.0823,0.0266,1.0104,0.5577,2.1576,0.2230,0.4031,-0.0443,0.1527,-0.6375,-42.2063,-26.0063,184.9087,10.9832,0.6551,
7.062247,0.0823,0.0266,1.0104,0.5577,2.1576,0.2230,0.4193,-0.0711,0.1071,-0.6375,-42.2063,-26.0063,184.9087,10.9832,0.6551,
7.065269,0.0823,0.0266,1.0104,0.7291,2.1696,0.2280,0.4193,-0.0711,0.1071,-0.6375,-42.2063,-26.0063,184.9087,10.9832,0.6551,
7.067570,0.0823,0.0266,1.0104,0.7291,2.1696,0.2280,0.4193,-0.0711,0.1071,-0.6375,-42.2063,-26.0063,184.9087,10.9832,0.6551,
7.086450,0.0833,0.0295,1.0058,0.7291,2.1696,0.2280,0.4193,-0.0711,0.1071,-0.6375,-42.2063,-26.0063,184.9087,10.9832,0.6551,
7.090096,0.0884,0.0320,1.0107,0.7291,2.1696,0.2280,0.4193,-0.0711,0.1071,-0.6375,-42.2063,-26.0063,184.9087,10.9832,0.6551,
7.092741,0.0938,0.0300,1.0082,0.7291,2.1696,0.2280,0.4193,-0.0711,0.1071,-0.6375,-42.2063,-26.0063,184.9087,10.9832,0.6551,
7.095347,0.1040,0.0298,1.0031,0.7291,2.1696,0.2280,0.4193,-0.0711,0.1071,-0.6375,-42.2063,-26.0063,184.9087,10.9832,0.6551,
7.097788,0.1077,0.0327,0.9999,0.7291,2.1696,0.2280,0.4193,-0.0711,0.1071,-0.6375,-42.2063,-26.0063,184.9087,10.9832,0.6551,
7.116107,0.1077,0.0327,0.9999,0.7291,2.1696,0.2280,0.4193,-0.0711,0.1071,-0.8063,-41.3625,-27.8625,184.9087,10.9832,0.6551,
7.128715,0.1077,0.0327,0.9999,0.7291,2.1696,0.2280,0.4022,-0.1034,0.0593,-0.8063,-41.3625,-27.8625,184.9087,10.9832,0.6551,
7.130179,0.1077,0.0327,0.9999,0.9435,2.2004,0.1508,0.4022,-0.1034,0.0593,-0.8063,-41.3625,-27.8625,184.9087,10.9832,0.6551,
7.131241,0.1077,0.0327,0.9999,0.9435,2.2004,0.1508,0.4022,-0.1034,0.0593,-0.8063,-41.3625,-27.8625,184.9087,10.9832,0.6551,
7.187339,0.1170,0.0335,0.9982,0.9435,2.2004,0.1508,0.4022,-0.1034,0.0593,-0.8063,-41.3625,-27.8625,184.9087,10.9832,0.6551,
7.190626,0.1214,0.0354,1.0016,0.9435,2.2004,0.1508,0.4022,-0.1034,0.0593,-0.8063,-41.3625,-27.8625,184.9087,10.9832,0.6551,
7.192777,0.1214,0.0354,1.0014,0.9435,2.2004,0.1508,0.4022,-0.1034,0.0593,-0.8063,-41.3625,-27.8625,184.9087,10.9832,0.6551,
7.194792,0.1182,0.0376,1.0048,0.9435,2.2004,0.1508,0.4022,-0.1034,0.0593,-0.8063,-41.3625,-27.8625,184.9087,10.9832,0.6551,
7.196882,0.1272,0.0361,0.9970,0.9435,2.2004,0.1508,0.4022,-0.1034,0.0593,-0.8063,-41.3625,-27.8625,184.9087,10.9832,0.6551,
7.199000,0.1272,0.0361,0.9970,0.9435,2.2004,0.1508,0.4022,-0.1034,0.0593,-0.7688,-40.6313,-28.8563,184.9087,10.9832,0.6551,
7.201313,0.1272,0.0361,0.9970,0.9435,2.2004,0.1508,0.3732,-0.1312,0.0219,-0.7688,-40.6313,-28.8563,184.9087,10.9832,0.6551,
7.203494,0.1272,0.0361,0.9970,1.0887,2.2130,0.1889,0.3732,-0.1312,0.0219,-0.7688,-40.6313,-28.8563,184.9087,10.9832,0.6551,
7.205754,0.1272,0.0361,0.9970,1.0887,2.2130,0.1889,0.3732,-0.1312,0.0219,-0.7688,-40.6313,-28.8563,184.9087,10.9832,0.6551,
7.257403,0.1272,0.0361,0.9970,1.0887,2.2130,0.1889,0.3732,-0.1312,0.0219,-0.6000,-40.1250,-29.5500,184.9087,10.9832,0.6551,
7.262915,0.1272,0.0361,0.9970,1.0887,2.2130,0.1889,0.3732,-0.1312,0.0219,-0.6000,-40.1250,-29.5500,184.9087,10.9832,0.6551,
7.265043,0.1272,0.0361,0.9970,1.1469,2.2213,0.3181,0.3732,-0.1312,0.0219,-0.6000,-40.1250,-29.5500,184.9087,10.9832,0.6551,
7.267242,0.1272,0.0361,0.9970,1.1469,2.2213,0.3181,0.3428,-0.1508,-0.0026,-0.6000,-40.1250,-29.5500,184.9087,10.9832,0.6551,
7.283558,0.1311,0.0352,1.0033,1.1469,2.2213,0.3181,0.3428,-0.1508,-0.0026,-0.6000,-40.1250,-29.5500,184.9087,10.9832,0.6551,
7.286517,0.1267,0.0400,1.0080,1.1469,2.2213,0.3181,0.3428,-0.1508,-0.0026,-0.6000,-40.1250,-29.5500,184.9087,10.9832,0.6551,
7.288762,0.1253,0.0376,1.0143,1.1469,2.2213,0.3181,0.3428,-0.1508,-0.0026,-0.6000,-40.1250,-29.5500,184.9087,10.9832,0.6551,
7.290879,0.1321,0.0391,1.0046,1.1469,2.2213,0.3181,0.3428,-0.1508,-0.0026,-0.6000,-40.1250,-29.5500,184.9087,10.9832,0.6551,
7.292970,0.1301,0.0124,1.0226,1.1469,2.2213,0.3181,0.3428,-0.1508,-0.0026,-0.6000,-40.1250,-29.5500,184.9087,10.9832,0.6551,
7.327191,0.1301,0.0124,1.0226,1.1469,2.2213,0.3181,0.3428,-0.1508,-0.0026,-0.6188,-39.9188,-29.7938,184.9087,10.9832,0.6551,
7.330660,0.1301,0.0124,1.0226,1.1469,2.2213,0.3181,0.3428,-0.1508,-0.0026,-0.6188,-39.9188,-29.7938,184.9087,10.9832,0.6551,
7.332713,0.1301,0.0124,1.0226,1.1469,2.2213,0.3181,0.3147,-0.1632,-0.0163,-0.6188,-39.9188,-29.7938,184.9087,10.9832,0.6551,
7.334909,0.1301,0.0124,1.0226,1.4674,1.8159,0.5188,0.3147,-0.1632,-0.0163,-0.6188,-39.9188,-29.7938,184.9087,10.9832,0.6551,
7.383954,0.1216,0.0630,0.9823,1.4674,1.8159,0.5188,0.3147,-0.1632,-0.0163,-0.6188,-39.9188,-29.7938,184.9087,10.9832,0.6551,
7.395403,0.1306,0.0352,1.0468,1.4674,1.8159,0.5188,0.3147,-0.1632,-0.0163,-0.6188,-39.9188,-29.7938,184.9087,10.9832,0.6551,
7.405055,0.1187,0.1174,0.9376,1.4674,1.8159,0.5188,0.3147,-0.1632,-0.0163,-0.6188,-39.9188,-29.7938,184.9087,10.9832,0.6551,
7.410867,0.0742,0.1378,1.0207,1.4674,1.8159,0.5188,0.3147,-0.1632,-0.0163,-0.6188,-39.9188,-29.7938,184.9087,10.9832,0.6551,
7.418353,0.1509,0.0728,0.9948,1.4674,1.8159,0.5188,0.3147,-0.1632,-0.0163,-0.6188,-39.9188,-29.7938,184.9087,10.9832,0.6551,
7.424808,0.1509,0.0728,0.9948,1.0079,3.5365,0.0350,0.3147,-0.1632,-0.0163,-0.6188,-39.9188,-29.7938,184.9087,10.9832,0.6551,
7.433270,0.1509,0.0728,0.9948,1.0079,3.5365,0.0350,0.2892,-0.1686,-0.0211,-0.6188,-39.9188,-29.7938,184.9087,10.9832,0.6551,
7.441562,0.1509,0.0728,0.9948,1.0079,3.5365,0.0350,0.2892,-0.1686,-0.0211,-1.0875,-39.5250,-30.1313,184.9087,10.9832,0.6551,
7.444039,0.1509,0.0728,0.9948,1.0079,3.5365,0.0350,0.2892,-0.1686,-0.0211,-1.0875,-39.5250,-30.1313,184.9087,10.9832,0.6551,
7.463150,0.1509,0.0728,0.9948,1.0079,3.5365,0.0350,0.2647,-0.1669,-0.0166,-1.0875,-39.5250,-30.1313,184.9087,10.9832,0.6551,
7.472168,0.1509,0.0728,0.9948,1.0079,3.5365,0.0350,0.2647,-0.1669,-0.0166,-1.0875,-39.5250,-30.1313,183.7606,11.0385,0.9022,
7.476998,0.1509,0.0728,0.9948,1.7842,0.6201,6.6514,0.2647,-0.1669,-0.0166,-1.0875,-39.5250,-30.1313,183.7606,11.0385,0.9022,
7.483508,0.1509,0.0728,0.9948,1.7842,0.6201,6.6514,0.2647,-0.1669,-0.0166,-2.7000,-37.2000,-31.7813,183.7606,11.0385,0.9022,
7.487977,0.2486,-0.0939,1.1733,1.7842,0.6201,6.6514,0.2647,-0.1669,-0.0166,-2.7000,-37.2000,-31.7813,183.7606,11.0385,0.9022,
7.491592,0.2096,-0.1576,1.5457,1.7842,0.6201,6.6514,0.2647,-0.1669,-0.0166,-2.7000,-37.2000,-31.7813,183.7606,11.0385,0.9022,
7.495536,0.2877,-0.1896,1.3605,1.7842,0.6201,6.6514,0.2647,-0.1669,-0.0166,-2.7000,-37.2000,-31.7813,183.7606,11.0385,0.9022,
7.499540,-0.2163,-0.5380,1.6217,1.7842,0.6201,6.6514,0.2647,-0.1669,-0.0166,-2.7000,-37.2000,-31.7813,183.7606,11.0385,0.9022,
7.503268,-0.1227,-0.2419,3.4884,1.7842,0.6201,6.6514,0.2647,-0.1669,-0.0166,-2.7000,-37.2000,-31.7813,183.7606,11.0385,0.9022,
7.529892,-0.1227,-0.2419,3.4884,1.7842,0.6201,6.6514,0.2272,-0.1626,0.0070,-2.7000,-37.2000,-31.7813,183.7606,11.0385,0.9022,
7.540635,-0.1227,-0.2419,3.4884,-1.9046,-3.8807,15.0753,0.2272,-0.1626,0.0070,-2.7000,-37.2000,-31.7813,183.7606,11.0385,0.9022,
7.547134,-0.1227,-0.2419,3.4884,-1.9046,-3.8807,15.0753,0.2272,-0.1626,0.0070,-2.7000,-37.2000,-31.7813,183.7606,11.0385,0.9022,
7.551787,-0.1227,-0.2419,3.4884,-1.9046,-3.8807,15.0753,0.2272,-0.1626,0.0070,-4.9500,-32.4000,-34.0500,183.7606,11.0385,0.9022,
7.579439,-0.0568,-0.5663,1.3224,-1.9046,-3.8807,15.0753,0.2272,-0.1626,0.0070,-4.9500,-32.4000,-34.0500,183.7606,11.0385,0.9022,
7.589662,0.2457,-0.4701,0.3423,-1.9046,-3.8807,15.0753,0.2272,-0.1626,0.0070,-4.9500,-32.4000,-34.0500,183.7606,11.0385,0.9022,
7.597277,0.3539,-0.2226,1.1893,-1.9046,-3.8807,15.0753,0.2272,-0.1626,0.0070,-4.9500,-32.4000,-34.0500,183.7606,11.0385,0.9022,
7.604689,0.1590,-0.3941,1.1333,-1.9046,-3.8807,15.0753,0.2272,-0.1626,0.0070,-4.9500,-32.4000,-34.0500,183.7606,11.0385,0.9022,
7.609298,-0.0534,-0.3592,1.2711,-1.9046,-3.8807,15.0753,0.2272,-0.1626,0.0070,-4.9500,-32.4000,-34.0500,183.7606,11.0385,0.9022,
7.613392,-0.0534,-0.3592,1.2711,-1.9046,-3.8807,15.0753,0.1577,-0.1504,0.0797,-4.9500,-32.4000,-34.0500,183.7606,11.0385,0.9022,
7.617646,-0.0534,-0.3592,1.2711,0.7610,-1.9245,0.9338,0.1577,-0.1504,0.0797,-4.9500,-32.4000,-34.0500,183.7606,11.0385,0.9022,
7.621854,-0.0534,-0.3592,1.2711,0.7610,-1.9245,0.9338,0.1577,-0.1504,0.0797,-4.9500,-32.4000,-34.0500,182.6737,11.4549,0.9780,
7.625725,-0.0534,-0.3592,1.2711,0.7610,-1.9245,0.9338,0.1577,-0.1504,0.0797,-6.7875,-26.4000,-36.2063,182.6737,11.4549,0.9780,
7.666395,-0.0534,-0.3592,1.2711,0.7610,-1.9245,0.9338,0.0595,-0.1377,0.2094,-6.7875,-26.4000,-36.2063,182.6737,11.4549,0.9780,
7.677376,-0.0534,-0.3592,1.2711,0.8302,0.7556,7.1044,0.0595,-0.1377,0.2094,-6.7875,-26.4000,-36.2063,182.6737,11.4549,0.9780,
7.689935,-0.0534,-0.3592,1.2711,0.8302,0.7556,7.1044,0.0595,-0.1377,0.2094,-6.7875,-26.4000,-36.2063,181.9288,11.8183,1.0492,
7.701487,-0.0496,-0.2712,1.4231,0.8302,0.7556,7.1044,0.0595,-0.1377,0.2094,-6.7875,-26.4000,-36.2063,181.9288,11.8183,1.0492,
7.707800,0.0056,-0.0841,1.6844,0.8302,0.7556,7.1044,0.0595,-0.1377,0.2094,-6.7875,-26.4000,-36.2063,181.9288,11.8183,1.0492,
7.713259,0.1475,-0.2077,1.5472,0.8302,0.7556,7.1044,0.0595,-0.1377,0.2094,-6.7875,-26.4000,-36.2063,181.9288,11.8183,1.0492,
7.717231,0.3334,-0.3345,0.7605,0.8302,0.7556,7.1044,0.0595,-0.1377,0.2094,-6.7875,-26.4000,-36.2063,181.9288,11.8183,1.0492,
7.722654,0.4429,-0.2641,0.5132,0.8302,0.7556,7.1044,0.0595,-0.1377,0.2094,-6.7875,-26.4000,-36.2063,181.9288,11.8183,1.0492,
7.724877,0.4429,-0.2641,0.5132,0.8302,0.7556,7.1044,0.0595,-0.1377,0.2094,-8.8125,-20.4375,-38.4375,181.9288,11.8183,1.0492,
7.732123,0.4429,-0.2641,0.5132,0.8302,0.7556,7.1044,-0.0392,-0.1381,0.3670,-8.8125,-20.4375,-38.4375,181.9288,11.8183,1.0492,
7.735231,0.4429,-0.2641,0.5132,1.7613,0.9755,0.0431,-0.0392,-0.1381,0.3670,-8.8125,-20.4375,-38.4375,181.9288,11.8183,1.0492,
7.736952,0.4429,-0.2641,0.5132,1.7613,0.9755,0.0431,-0.0392,-0.1381,0.3670,-8.8125,-20.4375,-38.4375,180.8723,12.2735,0.9247,
7.747712,0.4429,-0.2641,0.5132,1.7613,0.9755,0.0431,-0.0392,-0.1381,0.3670,-10.9688,-15.4875,-40.5000,180.8723,12.2735,0.9247,
7.775234,0.3166,-0.1178,0.8905,1.7613,0.9755,0.0431,-0.0392,-0.1381,0.3670,-10.9688,-15.4875,-40.5000,180.8723,12.2735,0.9247,
7.787414,-0.2590,-0.1937,0.8812,1.7613,0.9755,0.0431,-0.0392,-0.1381,0.3670,-10.9688,-15.4875,-40.5000,180.8723,12.2735,0.9247,
7.794931,-0.6040,-0.1889,0.9005,1.7613,0.9755,0.0431,-0.0392,-0.1381,0.3670,-10.9688,-15.4875,-40.5000,180.8723,12.2735,0.9247,
7.806856,-0.5722,-0.2863,0.8589,1.7613,0.9755,0.0431,-0.0392,-0.1381,0.3670,-10.9688,-15.4875,-40.5000,180.8723,12.2735,0.9247,
7.814884,-0.3301,-0.4830,0.5284,1.7613,0.9755,0.0431,-0.0392,-0.1381,0.3670,-10.9688,-15.4875,-40.5000,180.8723,12.2735,0.9247,
7.822878,-0.3301,-0.4830,0.5284,1.7613,0.9755,0.0431,-0.1120,-0.1262,0.5400,-10.9688,-15.4875,-40.5000,180.8723,12.2735,0.9247,
7.824883,-0.3301,-0.4830,0.5284,-3.8946,-2.2917,-4.1350,-0.1120,-0.1262,0.5400,-10.9688,-15.4875,-40.5000,180.8723,12.2735,0.9247,
7.827073,-0.3301,-0.4830,0.5284,-3.8946,-2.2917,-4.1350,-0.1120,-0.1262,0.5400,-10.9688,-15.4875,-40.5000,179.4733,12.8652,0.6217,
7.828911,-0.3301,-0.4830,0.5284,-3.8946,-2.2917,-4.1350,-0.1120,-0.1262,0.5400,-13.1813,-12.1500,-42.3750,179.4733,12.8652,0.6217,
7.863127,-0.3301,-0.4830,0.5284,-3.8946,-2.2917,-4.1350,-0.1120,-0.1262,0.5400,-13.1813,-12.1500,-42.3750,178.1526,13.2540,0.6688,
7.866433,-0.3301,-0.4830,0.5284,0.6367,-5.4878,1.6501,-0.1120,-0.1262,0.5400,-13.1813,-12.1500,-42.3750,178.1526,13.2540,0.6688,
7.868653,-0.3301,-0.4830,0.5284,0.6367,-5.4878,1.6501,-0.1707,-0.0719,0.7435,-13.1813,-12.1500,-42.3750,178.1526,13.2540,0.6688,
7.874350,-0.2575,-0.5478,0.6733,0.6367,-5.4878,1.6501,-0.1707,-0.0719,0.7435,-13.1813,-12.1500,-42.3750,178.1526,13.2540,0.6688,
7.877294,-0.2779,-0.5981,0.9642,0.6367,-5.4878,1.6501,-0.1707,-0.0719,0.7435,-13.1813,-12.1500,-42.3750,178.1526,13.2540,0.6688,
7.879492,-0.0164,-0.7496,1.1374,0.6367,-5.4878,1.6501,-0.1707,-0.0719,0.7435,-13.1813,-12.1500,-42.3750,178.1526,13.2540,0.6688,
7.881877,0.4859,-0.8603,1.0236,0.6367,-5.4878,1.6501,-0.1707,-0.0719,0.7435,-13.1813,-12.1500,-42.3750,178.1526,13.2540,0.6688,
7.884033,1.0905,-0.8898,0.9757,0.6367,-5.4878,1.6501,-0.1707,-0.0719,0.7435,-13.1813,-12.1500,-42.3750,178.1526,13.2540,0.6688,
7.886306,1.0905,-0.8898,0.9757,0.6367,-5.4878,1.6501,-0.1707,-0.0719,0.7435,-15.3188,-9.6562,-43.7250,178.1526,13.2540,0.6688,
7.929795,1.0905,-0.8898,0.9757,2.5459,-5.0435,7.2575,-0.1707,-0.0719,0.7435,-15.3188,-9.6562,-43.7250,178.1526,13.2540,0.6688,
7.942115,1.0905,-0.8898,0.9757,2.5459,-5.0435,7.2575,-0.2625,0.0196,0.9580,-15.3188,-9.6562,-43.7250,178.1526,13.2540,0.6688,
7.952537,1.0905,-0.8898,0.9757,2.5459,-5.0435,7.2575,-0.2625,0.0196,0.9580,-15.3188,-9.6562,-43.7250,176.7003,13.7373,0.6771,
7.962029,1.0905,-0.8898,0.9757,2.5459,-5.0435,7.2575,-0.2625,0.0196,0.9580,-16.9125,-9.1313,-44.1000,176.7003,13.7373,0.6771,
7.971026,0.8604,-0.7506,1.3913,2.5459,-5.0435,7.2575,-0.2625,0.0196,0.9580,-16.9125,-9.1313,-44.1000,176.7003,13.7373,0.6771,
7.977813,0.0901,-0.7806,1.7111,2.5459,-5.0435,7.2575,-0.2625,0.0196,0.9580,-16.9125,-9.1313,-44.1000,176.7003,13.7373,0.6771,
7.982510,-0.3717,-0.8563,1.5577,2.5459,-5.0435,7.2575,-0.2625,0.0196,0.9580,-16.9125,-9.1313,-44.1000,176.7003,13.7373,0.6771,
7.984447,-0.7166,-0.9162,1.5257,2.5459,-5.0435,7.2575,-0.2625,0.0196,0.9580,-16.9125,-9.1313,-44.1000,176.7003,13.7373,0.6771,
7.986185,-1.0374,-1.0227,1.3256,2.5459,-5.0435,7.2575,-0.2625,0.0196,0.9580,-16.9125,-9.1313,-44.1000,176.7003,13.7373,0.6771,
7.997780,-1.0374,-1.0227,1.3256,2.5459,-5.0435,7.2575,-0.2625,0.0196,0.9580,-16.9125,-9.1313,-44.1000,175.1389,14.4356,0.5981,
8.001035,-1.0374,-1.0227,1.3256,2.5459,-5.0435,7.2575,-0.4058,0.1049,1.0558,-16.9125,-9.1313,-44.1000,175.1389,14.4356,0.5981,
8.003192,-1.0374,-1.0227,1.3256,-10.6039,-7.5612,2.9338,-0.4058,0.1049,1.0558,-16.9125,-9.1313,-44.1000,175.1389,14.4356,0.5981,
8.027841,-1.0374,-1.0227,1.3256,-10.6039,-7.5612,2.9338,-0.4058,0.1049,1.0558,-17.0625,-11.7188,-42.6000,175.1389,14.4356,0.5981,
8.062760,-1.0374,-1.0227,1.3256,-10.6039,-7.5612,2.9338,-0.5513,0.1608,0.9394,-17.0625,-11.7188,-42.6000,175.1389,14.4356,0.5981,
8.073533,-1.0374,-1.0227,1.3256,12.8639,-7.5373,3.1098,-0.5513,0.1608,0.9394,-17.0625,-11.7188,-42.6000,175.1389,14.4356,0.5981,
8.079278,-1.0374,-1.0227,1.3256,12.8639,-7.5373,3.1098,-0.5513,0.1608,0.9394,-17.0625,-11.7188,-42.6000,173.7574,15.2752,0.7389,
8.087674,-0.7315,-0.9770,1.3258,12.8639,-7.5373,3.1098,-0.5513,0.1608,0.9394,-17.0625,-11.7188,-42.6000,173.7574,15.2752,0.7389,
8.094162,0.4143,-1.0266,1.4018,12.8639,-7.5373,3.1098,-0.5513,0.1608,0.9394,-17.0625,-11.7188,-42.6000,173.7574,15.2752,0.7389,
8.100012,1.1758,-0.9924,1.3893,12.8639,-7.5373,3.1098,-0.5513,0.1608,0.9394,-17.0625,-11.7188,-42.6000,173.7574,15.2752,0.7389,
8.103694,1.3407,-1.0586,1.1457,12.8639,-7.5373,3.1098,-0.5513,0.1608,0.9394,-17.0625,-11.7188,-42.6000,173.7574,15.2752,0.7389,
8.105481,1.2713,-1.0415,0.6728,12.8639,-7.5373,3.1098,-0.5513,0.1608,0.9394,-17.0625,-11.7188,-42.6000,173.7574,15.2752,0.7389,
8.107164,1.2713,-1.0415,0.6728,12.8639,-7.5373,3.1098,-0.5513,0.1608,0.9394,-17.0813,-17.1188,-39.4500,173.7574,15.2752,0.7389,
8.129569,1.2713,-1.0415,0.6728,12.8639,-7.5373,3.1098,-0.6410,0.1857,0.6566,-17.0813,-17.1188,-39.4500,173.7574,15.2752,0.7389,
8.139756,1.2713,-1.0415,0.6728,5.5998,-3.4491,-6.1123,-0.6410,0.1857,0.6566,-17.0813,-17.1188,-39.4500,173.7574,15.2752,0.7389,
8.146928,1.2713,-1.0415,0.6728,5.5998,-3.4491,-6.1123,-0.6410,0.1857,0.6566,-17.0813,-17.1188,-39.4500,172.6630,16.0842,1.1870,
8.167274,1.2713,-1.0415,0.6728,5.5998,-3.4491,-6.1123,-0.6410,0.1857,0.6566,-16.7812,-24.2625,-35.6250,172.6630,16.0842,1.1870,
8.170557,1.0788,-0.8544,0.5113,5.5998,-3.4491,-6.1123,-0.6410,0.1857,0.6566,-16.7812,-24.2625,-35.6250,172.6630,16.0842,1.1870,
8.172943,0.6869,-0.6687,0.3537,5.5998,-3.4491,-6.1123,-0.6410,0.1857,0.6566,-16.7812,-24.2625,-35.6250,172.6630,16.0842,1.1870,
8.175207,0.2831,-0.5439,0.5040,5.5998,-3.4491,-6.1123,-0.6410,0.1857,0.6566,-16.7812,-24.2625,-35.6250,172.6630,16.0842,1.1870,
8.177513,-0.1801,-0.4469,0.4861,5.5998,-3.4491,-6.1123,-0.6410,0.1857,0.6566,-16.7812,-24.2625,-35.6250,172.6630,16.0842,1.1870,
8.179683,-0.5874,-0.7730,-0.2458,5.5998,-3.4491,-6.1123,-0.6410,0.1857,0.6566,-16.7812,-24.2625,-35.6250,172.6630,16.0842,1.1870,
8.195132,-0.5874,-0.7730,-0.2458,5.5998,-3.4491,-6.1123,-0.6593,0.1644,0.3182,-16.7812,-24.2625,-35.6250,172.6630,16.0842,1.1870,
8.198003,-0.5874,-0.7730,-0.2458,5.5998,-3.4491,-6.1123,-0.6593,0.1644,0.3182,-16.7812,-24.2625,-35.6250,171.9032,16.7361,2.0049,
8.200191,-0.5874,-0.7730,-0.2458,-4.1696,-6.5897,-15.8742,-0.6593,0.1644,0.3182,-16.7812,-24.2625,-35.6250,171.9032,16.7361,2.0049,
8.237577,-0.5874,-0.7730,-0.2458,-4.1696,-6.5897,-15.8742,-0.6593,0.1644,0.3182,-16.1250,-31.1625,-32.7563,171.9032,16.7361,2.0049,
8.262939,-0.5874,-0.7730,-0.2458,1.8563,4.3753,-3.5880,-0.6593,0.1644,0.3182,-16.1250,-31.1625,-32.7563,171.9032,16.7361,2.0049,
8.267565,-0.5874,-0.7730,-0.2458,1.8563,4.3753,-3.5880,-0.6593,0.1644,0.3182,-16.1250,-31.1625,-32.7563,170.9745,17.4406,2.3287,
8.269522,-0.5874,-0.7730,-0.2458,1.8563,4.3753,-3.5880,-0.6168,0.1010,0.0327,-16.1250,-31.1625,-32.7563,170.9745,17.4406,2.3287,
8.271248,-0.1395,-0.5607,-0.3538,1.8563,4.3753,-3.5880,-0.6168,0.1010,0.0327,-16.1250,-31.1625,-32.7563,170.9745,17.4406,2.3287,
8.273732,0.0628,0.1519,2.3187,1.8563,4.3753,-3.5880,-0.6168,0.1010,0.0327,-16.1250,-31.1625,-32.7563,170.9745,17.4406,2.3287,
8.275508,0.1123,-0.1654,3.8334,1.8563,4.3753,-3.5880,-0.6168,0.1010,0.0327,-16.1250,-31.1625,-32.7563,170.9745,17.4406,2.3287,
8.277288,0.3390,0.0283,2.2368,1.8563,4.3753,-3.5880,-0.6168,0.1010,0.0327,-16.1250,-31.1625,-32.7563,170.9745,17.4406,2.3287,
8.279045,-0.5837,0.2052,-1.0652,1.8563,4.3753,-3.5880,-0.6168,0.1010,0.0327,-16.1250,-31.1625,-32.7563,170.9745,17.4406,2.3287,
8.307194,-0.5837,0.2052,-1.0652,1.8563,4.3753,-3.5880,-0.6168,0.1010,0.0327,-15.1500,-36.6000,-30.5250,170.9745,17.4406,2.3287,
8.329203,-0.5837,0.2052,-1.0652,1.8563,4.3753,-3.5880,-0.5183,0.0409,-0.1265,-15.1500,-36.6000,-30.5250,170.9745,17.4406,2.3287,
8.332509,-0.5837,0.2052,-1.0652,4.6574,2.5853,5.8504,-0.5183,0.0409,-0.1265,-15.1500,-36.6000,-30.5250,170.9745,17.4406,2.3287,
8.334767,-0.5837,0.2052,-1.0652,4.6574,2.5853,5.8504,-0.5183,0.0409,-0.1265,-15.1500,-36.6000,-30.5250,170.1765,17.7734,2.6655,
8.364807,-0.7733,0.0359,0.0759,4.6574,2.5853,5.8504,-0.5183,0.0409,-0.1265,-15.1500,-36.6000,-30.5250,170.1765,17.7734,2.6655,
8.368002,0.6732,-0.0966,3.1207,4.6574,2.5853,5.8504,-0.5183,0.0409,-0.1265,-15.1500,-36.6000,-30.5250,170.1765,17.7734,2.6655,
8.370314,0.1475,-0.0010,1.3380,4.6574,2.5853,5.8504,-0.5183,0.0409,-0.1265,-15.1500,-36.6000,-30.5250,170.1765,17.7734,2.6655,
8.372494,0.1179,0.0164,1.3537,4.6574,2.5853,5.8504,-0.5183,0.0409,-0.1265,-15.1500,-36.6000,-30.5250,170.1765,17.7734,2.6655,
8.374636,0.0070,0.0320,1.0021,4.6574,2.5853,5.8504,-0.5183,0.0409,-0.1265,-15.1500,-36.6000,-30.5250,170.1765,17.7734,2.6655,
8.376852,0.0070,0.0320,1.0021,4.6574,2.5853,5.8504,-0.5183,0.0409,-0.1265,-14.3063,-40.1813,-28.9313,170.1765,17.7734,2.6655,
8.395625,0.0070,0.0320,1.0021,-0.2182,3.1988,0.6090,-0.5183,0.0409,-0.1265,-14.3063,-40.1813,-28.9313,170.1765,17.7734,2.6655,
8.398496,0.0070,0.0320,1.0021,-0.2182,3.1988,0.6090,-0.5183,0.0409,-0.1265,-14.3063,-40.1813,-28.9313,169.5225,17.4612,3.1195,
8.400808,0.0070,0.0320,1.0021,-0.2182,3.1988,0.6090,-0.3463,0.0399,-0.1422,-14.3063,-40.1813,-28.9313,169.5225,17.4612,3.1195,
8.448797,0.0070,0.0320,1.0021,-0.2182,3.1988,0.6090,-0.3463,0.0399,-0.1422,-13.4813,-42.3375,-27.8063,169.5225,17.4612,3.1195,
8.464299,0.0263,0.0269,1.0231,-0.2182,3.1988,0.6090,-0.3463,0.0399,-0.1422,-13.4813,-42.3375,-27.8063,169.5225,17.4612,3.1195,
8.471647,0.0427,0.0286,1.0155,-0.2182,3.1988,0.6090,-0.3463,0.0399,-0.1422,-13.4813,-42.3375,-27.8063,169.5225,17.4612,3.1195,
8.478812,0.0519,0.0305,1.0087,-0.2182,3.1988,0.6090,-0.3463,0.0399,-0.1422,-13.4813,-42.3375,-27.8063,169.5225,17.4612,3.1195,
8.485149,0.0493,0.0322,1.0063,-0.2182,3.1988,0.6090,-0.3463,0.0399,-0.1422,-13.4813,-42.3375,-27.8063,169.5225,17.4612,3.1195,
8.489437,0.0564,0.0305,1.0092,-0.2182,3.1988,0.6090,-0.3463,0.0399,-0.1422,-13.4813,-42.3375,-27.8063,169.5225,17.4612,3.1195,
8.495021,0.0564,0.0305,1.0092,-0.2182,3.1988,0.6090,-0.0986,0.0859,-0.0744,-13.4813,-42.3375,-27.8063,169.5225,17.4612,3.1195,
8.499044,0.0564,0.0305,1.0092,-0.0293,3.0677,0.5302,-0.0986,0.0859,-0.0744,-13.4813,-42.3375,-27.8063,169.5225,17.4612,3.1195,
8.503633,0.0564,0.0305,1.0092,-0.0293,3.0677,0.5302,-0.0986,0.0859,-0.0744,-13.4813,-42.3375,-27.8063,168.8134,16.4275,3.2747,
8.516582,0.0564,0.0305,1.0092,-0.0293,3.0677,0.5302,-0.0986,0.0859,-0.0744,-13.0313,-43.3875,-27.1875,168.8134,16.4275,3.2747,
8.529590,0.0564,0.0305,1.0092,-0.0293,3.0677,0.5302,0.1759,0.1028,-0.0114,-13.0313,-43.3875,-27.1875,168.8134,16.4275,3.2747,
8.534871,0.0564,0.0305,1.0092,0.0818,2.8501,0.4239,0.1759,0.1028,-0.0114,-13.0313,-43.3875,-27.1875,168.8134,16.4275,3.2747,
8.540895,0.0564,0.0305,1.0092,0.0818,2.8501,0.4239,0.1759,0.1028,-0.0114,-13.0313,-43.3875,-27.1875,168.1237,15.0472,3.3532,
8.560489,0.0581,0.0298,1.0104,0.0818,2.8501,0.4239,0.1759,0.1028,-0.0114,-13.0313,-43.3875,-27.1875,168.1237,15.0472,3.3532,
8.566250,0.0637,0.0281,1.0092,0.0818,2.8501,0.4239,0.1759,0.1028,-0.0114,-13.0313,-43.3875,-27.1875,168.1237,15.0472,3.3532,
8.574434,0.0647,0.0308,1.0082,0.0818,2.8501,0.4239,0.1759,0.1028,-0.0114,-13.0313,-43.3875,-27.1875,168.1237,15.0472,3.3532,
8.580052,0.0693,0.0344,1.0085,0.0818,2.8501,0.4239,0.1759,0.1028,-0.0114,-13.0313,-43.3875,-27.1875,168.1237,15.0472,3.3532,
8.584537,0.0747,0.0342,1.0016,0.0818,2.8501,0.4239,0.1759,0.1028,-0.0114,-13.0313,-43.3875,-27.1875,168.1237,15.0472,3.3532,
8.589955,0.0747,0.0342,1.0016,0.0818,2.8501,0.4239,0.1759,0.1028,-0.0114,-12.9750,-43.3500,-27.2250,168.1237,15.0472,3.3532,
8.599944,0.0747,0.0342,1.0016,0.2884,2.6649,0.3546,0.1759,0.1028,-0.0114,-12.9750,-43.3500,-27.2250,168.1237,15.0472,3.3532,
8.608486,0.0747,0.0342,1.0016,0.2884,2.6649,0.3546,0.1759,0.1028,-0.0114,-12.9750,-43.3500,-27.2250,167.2400,13.8362,2.9849,
8.612729,0.0747,0.0342,1.0016,0.2884,2.6649,0.3546,0.3907,0.0494,0.0014,-12.9750,-43.3500,-27.2250,167.2400,13.8362,2.9849,
8.657924,0.0747,0.0342,1.0016,0.2884,2.6649,0.3546,0.3907,0.0494,0.0014,-12.6375,-42.7500,-28.3688,167.2400,13.8362,2.9849,
8.669615,0.0791,0.0342,1.0033,0.2884,2.6649,0.3546,0.3907,0.0494,0.0014,-12.6375,-42.7500,-28.3688,167.2400,13.8362,2.9849,
